"Timestamp","Accelerometer.X","Accelerometer.Y","Accelerometer.Z","DATE_TIME"
"2/8/2020 18:03:56.038",-0.063,0.98,0.004,2020-02-08 18:03:56.038
"2/8/2020 18:03:56.050",-0.051,0.98,0,2020-02-08 18:03:56.049
"2/8/2020 18:03:56.063",-0.055,0.98,-0.008,2020-02-08 18:03:56.062
"2/8/2020 18:03:56.075",-0.063,0.98,-0.012,2020-02-08 18:03:56.075
"2/8/2020 18:03:56.088",-0.066,0.973,-0.012,2020-02-08 18:03:56.088
"2/8/2020 18:03:56.100",-0.066,0.973,-0.004,2020-02-08 18:03:56.099
"2/8/2020 18:03:56.113",-0.074,0.973,-0.004,2020-02-08 18:03:56.112
"2/8/2020 18:03:56.125",-0.074,0.98,-0.004,2020-02-08 18:03:56.125
"2/8/2020 18:03:56.138",-0.059,0.98,-0.008,2020-02-08 18:03:56.138
"2/8/2020 18:03:56.150",-0.059,0.977,-0.008,2020-02-08 18:03:56.150
"2/8/2020 18:03:56.163",-0.059,0.977,-0.008,2020-02-08 18:03:56.163
"2/8/2020 18:03:56.175",-0.074,0.965,-0.008,2020-02-08 18:03:56.174
"2/8/2020 18:03:56.188",-0.082,0.965,-0.008,2020-02-08 18:03:56.187
"2/8/2020 18:03:56.200",-0.082,0.969,-0.008,2020-02-08 18:03:56.200
"2/8/2020 18:03:56.213",-0.078,0.969,-0.008,2020-02-08 18:03:56.213
"2/8/2020 18:03:56.225",-0.078,0.973,-0.004,2020-02-08 18:03:56.224
"2/8/2020 18:03:56.238",-0.063,0.973,-0.008,2020-02-08 18:03:56.237
"2/8/2020 18:03:56.250",-0.059,0.973,-0.008,2020-02-08 18:03:56.250
"2/8/2020 18:03:56.263",-0.066,0.973,-0.012,2020-02-08 18:03:56.263
"2/8/2020 18:03:56.275",-0.074,0.969,-0.012,2020-02-08 18:03:56.275
"2/8/2020 18:03:56.288",-0.074,0.973,-0.012,2020-02-08 18:03:56.288
"2/8/2020 18:03:56.300",-0.07,0.977,-0.012,2020-02-08 18:03:56.299
"2/8/2020 18:03:56.313",-0.07,0.98,-0.008,2020-02-08 18:03:56.312
"2/8/2020 18:03:56.325",-0.07,0.973,-0.008,2020-02-08 18:03:56.325
"2/8/2020 18:03:56.338",-0.07,0.98,-0.008,2020-02-08 18:03:56.338
"2/8/2020 18:03:56.350",-0.07,0.977,-0.012,2020-02-08 18:03:56.349
"2/8/2020 18:03:56.363",-0.07,0.969,-0.008,2020-02-08 18:03:56.362
"2/8/2020 18:03:56.375",-0.074,0.977,-0.004,2020-02-08 18:03:56.375
"2/8/2020 18:03:56.388",-0.07,0.98,-0.004,2020-02-08 18:03:56.388
"2/8/2020 18:03:56.400",-0.066,0.977,-0.004,2020-02-08 18:03:56.400
"2/8/2020 18:03:56.413",-0.07,0.977,0,2020-02-08 18:03:56.413
"2/8/2020 18:03:56.425",-0.07,0.977,-0.004,2020-02-08 18:03:56.424
"2/8/2020 18:03:56.438",-0.07,0.977,-0.008,2020-02-08 18:03:56.437
"2/8/2020 18:03:56.450",-0.074,0.969,-0.008,2020-02-08 18:03:56.450
"2/8/2020 18:03:56.463",-0.074,0.969,-0.008,2020-02-08 18:03:56.463
"2/8/2020 18:03:56.475",-0.078,0.969,-0.004,2020-02-08 18:03:56.474
"2/8/2020 18:03:56.488",-0.078,0.977,-0.004,2020-02-08 18:03:56.487
"2/8/2020 18:03:56.500",-0.086,0.98,-0.016,2020-02-08 18:03:56.500
"2/8/2020 18:03:56.513",-0.078,0.973,-0.016,2020-02-08 18:03:56.513
"2/8/2020 18:03:56.525",-0.086,0.969,-0.016,2020-02-08 18:03:56.525
"2/8/2020 18:03:56.538",-0.086,0.969,-0.016,2020-02-08 18:03:56.538
"2/8/2020 18:03:56.550",-0.094,0.957,0,2020-02-08 18:03:56.549
"2/8/2020 18:03:56.563",-0.113,0.961,0.008,2020-02-08 18:03:56.562
"2/8/2020 18:03:56.575",-0.125,0.965,0.008,2020-02-08 18:03:56.575
"2/8/2020 18:03:56.588",-0.121,0.977,0.008,2020-02-08 18:03:56.588
"2/8/2020 18:03:56.600",-0.105,0.98,0.012,2020-02-08 18:03:56.599
"2/8/2020 18:03:56.613",-0.09,0.984,0.008,2020-02-08 18:03:56.612
"2/8/2020 18:03:56.625",-0.094,0.98,0.004,2020-02-08 18:03:56.625
"2/8/2020 18:03:56.638",-0.102,0.992,0,2020-02-08 18:03:56.638
"2/8/2020 18:03:56.650",-0.105,1.012,-0.008,2020-02-08 18:03:56.650
"2/8/2020 18:03:56.663",-0.082,1.047,-0.012,2020-02-08 18:03:56.663
"2/8/2020 18:03:56.675",-0.055,1.078,-0.012,2020-02-08 18:03:56.674
"2/8/2020 18:03:56.688",-0.047,1.105,0,2020-02-08 18:03:56.687
"2/8/2020 18:03:56.700",-0.035,1.117,0.008,2020-02-08 18:03:56.700
"2/8/2020 18:03:56.713",-0.051,1.117,0.008,2020-02-08 18:03:56.713
"2/8/2020 18:03:56.725",-0.098,1.141,-0.043,2020-02-08 18:03:56.724
"2/8/2020 18:03:56.738",-0.066,1.098,-0.082,2020-02-08 18:03:56.737
"2/8/2020 18:03:56.750",-0.051,1.031,-0.031,2020-02-08 18:03:56.750
"2/8/2020 18:03:56.763",-0.105,1.012,0.008,2020-02-08 18:03:56.763
"2/8/2020 18:03:56.775",-0.168,0.953,0.004,2020-02-08 18:03:56.775
"2/8/2020 18:03:56.788",-0.141,0.926,-0.027,2020-02-08 18:03:56.788
"2/8/2020 18:03:56.800",-0.109,0.922,-0.039,2020-02-08 18:03:56.799
"2/8/2020 18:03:56.813",-0.102,0.902,-0.043,2020-02-08 18:03:56.812
"2/8/2020 18:03:56.825",-0.086,0.879,-0.031,2020-02-08 18:03:56.825
"2/8/2020 18:03:56.838",-0.098,0.852,0.012,2020-02-08 18:03:56.838
"2/8/2020 18:03:56.850",-0.094,0.824,0.063,2020-02-08 18:03:56.849
"2/8/2020 18:03:56.863",-0.078,0.828,0.09,2020-02-08 18:03:56.862
"2/8/2020 18:03:56.875",-0.055,0.852,0.102,2020-02-08 18:03:56.875
"2/8/2020 18:03:56.888",-0.008,0.887,0.105,2020-02-08 18:03:56.888
"2/8/2020 18:03:56.900",0.031,0.941,0.09,2020-02-08 18:03:56.900
"2/8/2020 18:03:56.913",0.074,0.977,0.082,2020-02-08 18:03:56.913
"2/8/2020 18:03:56.925",0.125,0.988,0.07,2020-02-08 18:03:56.924
"2/8/2020 18:03:56.938",0.191,0.984,0.063,2020-02-08 18:03:56.937
"2/8/2020 18:03:56.950",0.223,0.969,0.055,2020-02-08 18:03:56.950
"2/8/2020 18:03:56.963",0.176,0.961,0.066,2020-02-08 18:03:56.963
"2/8/2020 18:03:56.975",0.113,0.941,0.074,2020-02-08 18:03:56.974
"2/8/2020 18:03:56.988",0.07,0.895,0.066,2020-02-08 18:03:56.987
"2/8/2020 18:03:57.000",0.059,0.844,0.043,2020-02-08 18:03:57.000
"2/8/2020 18:03:57.013",0.207,0.82,-0.07,2020-02-08 18:03:57.013
"2/8/2020 18:03:57.025",0.652,0.82,-0.195,2020-02-08 18:03:57.025
"2/8/2020 18:03:57.038",0.895,0.875,0.02,2020-02-08 18:03:57.038
"2/8/2020 18:03:57.050",0.688,1.02,0.219,2020-02-08 18:03:57.049
"2/8/2020 18:03:57.063",0.234,1.133,0.25,2020-02-08 18:03:57.062
"2/8/2020 18:03:57.075",-0.262,1.211,0.031,2020-02-08 18:03:57.075
"2/8/2020 18:03:57.088",-0.547,1.145,-0.066,2020-02-08 18:03:57.088
"2/8/2020 18:03:57.100",-0.348,1.098,-0.023,2020-02-08 18:03:57.099
"2/8/2020 18:03:57.113",-0.031,1.063,0.109,2020-02-08 18:03:57.112
"2/8/2020 18:03:57.125",0.004,0.98,0.113,2020-02-08 18:03:57.125
"2/8/2020 18:03:57.138",-0.09,0.961,-0.094,2020-02-08 18:03:57.138
"2/8/2020 18:03:57.150",-0.078,0.961,-0.242,2020-02-08 18:03:57.150
"2/8/2020 18:03:57.163",-0.023,0.965,-0.176,2020-02-08 18:03:57.163
"2/8/2020 18:03:57.175",0.086,0.949,-0.082,2020-02-08 18:03:57.174
"2/8/2020 18:03:57.188",0.105,0.953,-0.031,2020-02-08 18:03:57.187
"2/8/2020 18:03:57.200",0.113,0.98,0.051,2020-02-08 18:03:57.200
"2/8/2020 18:03:57.213",0.133,1.016,0.105,2020-02-08 18:03:57.213
"2/8/2020 18:03:57.225",0.113,0.988,0.047,2020-02-08 18:03:57.224
"2/8/2020 18:03:57.238",0.141,0.965,-0.098,2020-02-08 18:03:57.237
"2/8/2020 18:03:57.250",0.211,0.938,-0.262,2020-02-08 18:03:57.250
"2/8/2020 18:03:57.263",0.313,0.934,-0.316,2020-02-08 18:03:57.263
"2/8/2020 18:03:57.275",0.309,0.891,-0.227,2020-02-08 18:03:57.275
"2/8/2020 18:03:57.288",0.281,0.906,-0.152,2020-02-08 18:03:57.288
"2/8/2020 18:03:57.300",0.301,0.957,-0.164,2020-02-08 18:03:57.299
"2/8/2020 18:03:57.313",0.379,0.988,-0.188,2020-02-08 18:03:57.312
"2/8/2020 18:03:57.325",0.375,0.945,-0.176,2020-02-08 18:03:57.325
"2/8/2020 18:03:57.338",0.395,0.953,-0.121,2020-02-08 18:03:57.338
"2/8/2020 18:03:57.350",0.387,0.98,-0.09,2020-02-08 18:03:57.349
"2/8/2020 18:03:57.363",0.355,0.98,-0.125,2020-02-08 18:03:57.362
"2/8/2020 18:03:57.375",0.355,0.957,-0.176,2020-02-08 18:03:57.375
"2/8/2020 18:03:57.388",0.375,0.93,-0.207,2020-02-08 18:03:57.388
"2/8/2020 18:03:57.400",0.375,0.918,-0.207,2020-02-08 18:03:57.400
"2/8/2020 18:03:57.413",0.391,0.918,-0.211,2020-02-08 18:03:57.413
"2/8/2020 18:03:57.425",0.426,0.938,-0.207,2020-02-08 18:03:57.424
"2/8/2020 18:03:57.438",0.406,0.957,-0.184,2020-02-08 18:03:57.437
"2/8/2020 18:03:57.450",0.402,0.949,-0.172,2020-02-08 18:03:57.450
"2/8/2020 18:03:57.463",0.41,0.922,-0.156,2020-02-08 18:03:57.463
"2/8/2020 18:03:57.475",0.422,0.922,-0.125,2020-02-08 18:03:57.474
"2/8/2020 18:03:57.488",0.445,0.945,-0.086,2020-02-08 18:03:57.487
"2/8/2020 18:03:57.500",0.445,0.973,-0.066,2020-02-08 18:03:57.500
"2/8/2020 18:03:57.513",0.453,0.98,-0.078,2020-02-08 18:03:57.513
"2/8/2020 18:03:57.525",0.438,0.98,-0.113,2020-02-08 18:03:57.525
"2/8/2020 18:03:57.538",0.391,0.965,-0.141,2020-02-08 18:03:57.538
"2/8/2020 18:03:57.550",0.348,0.945,-0.164,2020-02-08 18:03:57.549
"2/8/2020 18:03:57.563",0.301,0.918,-0.195,2020-02-08 18:03:57.562
"2/8/2020 18:03:57.575",0.262,0.891,-0.223,2020-02-08 18:03:57.575
"2/8/2020 18:03:57.588",0.379,0.922,-0.188,2020-02-08 18:03:57.588
"2/8/2020 18:03:57.600",0.473,1.012,-0.219,2020-02-08 18:03:57.599
"2/8/2020 18:03:57.613",0.301,0.852,-0.215,2020-02-08 18:03:57.612
"2/8/2020 18:03:57.625",0.348,0.891,-0.184,2020-02-08 18:03:57.625
"2/8/2020 18:03:57.638",0.375,1.012,-0.18,2020-02-08 18:03:57.638
"2/8/2020 18:03:57.650",0.355,1.043,-0.152,2020-02-08 18:03:57.650
"2/8/2020 18:03:57.663",0.297,0.98,-0.059,2020-02-08 18:03:57.663
"2/8/2020 18:03:57.675",0.277,0.973,0.043,2020-02-08 18:03:57.674
"2/8/2020 18:03:57.688",0.309,0.973,0.059,2020-02-08 18:03:57.687
"2/8/2020 18:03:57.700",0.348,0.926,0.055,2020-02-08 18:03:57.700
"2/8/2020 18:03:57.713",0.332,0.871,0.063,2020-02-08 18:03:57.713
"2/8/2020 18:03:57.725",0.281,0.836,0.066,2020-02-08 18:03:57.724
"2/8/2020 18:03:57.738",0.25,0.859,0.047,2020-02-08 18:03:57.737
"2/8/2020 18:03:57.750",0.219,0.898,-0.02,2020-02-08 18:03:57.750
"2/8/2020 18:03:57.763",0.223,0.91,-0.086,2020-02-08 18:03:57.763
"2/8/2020 18:03:57.775",0.211,0.887,-0.09,2020-02-08 18:03:57.775
"2/8/2020 18:03:57.788",0.238,0.891,-0.031,2020-02-08 18:03:57.788
"2/8/2020 18:03:57.800",0.227,0.941,0.02,2020-02-08 18:03:57.799
"2/8/2020 18:03:57.813",0.25,0.984,0.059,2020-02-08 18:03:57.812
"2/8/2020 18:03:57.825",0.258,0.961,0.063,2020-02-08 18:03:57.825
"2/8/2020 18:03:57.838",0.297,0.906,0.012,2020-02-08 18:03:57.838
"2/8/2020 18:03:57.850",0.266,0.871,-0.063,2020-02-08 18:03:57.849
"2/8/2020 18:03:57.863",0.219,0.941,-0.156,2020-02-08 18:03:57.862
"2/8/2020 18:03:57.875",0.18,1.031,-0.234,2020-02-08 18:03:57.875
"2/8/2020 18:03:57.888",0.27,1.047,-0.266,2020-02-08 18:03:57.888
"2/8/2020 18:03:57.900",0.328,0.98,-0.246,2020-02-08 18:03:57.900
"2/8/2020 18:03:57.913",0.336,0.941,-0.23,2020-02-08 18:03:57.913
"2/8/2020 18:03:57.925",0.383,0.957,-0.199,2020-02-08 18:03:57.924
"2/8/2020 18:03:57.938",0.395,1,-0.16,2020-02-08 18:03:57.937
"2/8/2020 18:03:57.950",0.391,1.023,-0.152,2020-02-08 18:03:57.950
"2/8/2020 18:03:57.963",0.391,1.012,-0.148,2020-02-08 18:03:57.963
"2/8/2020 18:03:57.975",0.379,0.996,-0.145,2020-02-08 18:03:57.974
"2/8/2020 18:03:57.988",0.406,0.984,-0.125,2020-02-08 18:03:57.987
"2/8/2020 18:03:58.000",0.379,0.98,-0.074,2020-02-08 18:03:58.000
"2/8/2020 18:03:58.013",0.383,1.023,-0.039,2020-02-08 18:03:58.013
"2/8/2020 18:03:58.025",0.359,1.063,-0.059,2020-02-08 18:03:58.025
"2/8/2020 18:03:58.038",0.344,1.059,-0.086,2020-02-08 18:03:58.038
"2/8/2020 18:03:58.050",0.32,1.004,-0.117,2020-02-08 18:03:58.049
"2/8/2020 18:03:58.063",0.309,0.961,-0.176,2020-02-08 18:03:58.062
"2/8/2020 18:03:58.075",0.273,0.949,-0.195,2020-02-08 18:03:58.075
"2/8/2020 18:03:58.088",0.223,0.977,-0.172,2020-02-08 18:03:58.088
"2/8/2020 18:03:58.100",0.156,1.016,-0.145,2020-02-08 18:03:58.099
"2/8/2020 18:03:58.113",0.105,1.035,-0.125,2020-02-08 18:03:58.112
"2/8/2020 18:03:58.125",0.051,1.043,-0.105,2020-02-08 18:03:58.125
"2/8/2020 18:03:58.138",-0.012,1.07,-0.07,2020-02-08 18:03:58.138
"2/8/2020 18:03:58.150",-0.07,1.117,-0.031,2020-02-08 18:03:58.150
"2/8/2020 18:03:58.163",-0.098,1.16,0.016,2020-02-08 18:03:58.163
"2/8/2020 18:03:58.175",-0.164,1.176,0.051,2020-02-08 18:03:58.174
"2/8/2020 18:03:58.188",-0.152,1.148,0.035,2020-02-08 18:03:58.187
"2/8/2020 18:03:58.200",-0.117,1.129,0.039,2020-02-08 18:03:58.200
"2/8/2020 18:03:58.213",-0.164,1.152,0.145,2020-02-08 18:03:58.213
"2/8/2020 18:03:58.225",-0.246,1.238,0.344,2020-02-08 18:03:58.224
"2/8/2020 18:03:58.238",-0.301,1.199,0.621,2020-02-08 18:03:58.237
"2/8/2020 18:03:58.250",-0.293,1.055,0.867,2020-02-08 18:03:58.250
"2/8/2020 18:03:58.263",-0.332,0.813,0.875,2020-02-08 18:03:58.263
"2/8/2020 18:03:58.275",0.227,0.551,0.84,2020-02-08 18:03:58.275
"2/8/2020 18:03:58.288",1.188,0.773,0.422,2020-02-08 18:03:58.288
"2/8/2020 18:03:58.300",1.902,1.07,-0.227,2020-02-08 18:03:58.299
"2/8/2020 18:03:58.313",2.418,1.324,-0.285,2020-02-08 18:03:58.312
"2/8/2020 18:03:58.325",1.988,1.426,-0.035,2020-02-08 18:03:58.325
"2/8/2020 18:03:58.338",1.27,1.344,0.199,2020-02-08 18:03:58.338
"2/8/2020 18:03:58.350",0.641,1.305,0.152,2020-02-08 18:03:58.349
"2/8/2020 18:03:58.363",0.418,1.293,-0.023,2020-02-08 18:03:58.362
"2/8/2020 18:03:58.375",0.41,1.352,-0.109,2020-02-08 18:03:58.375
"2/8/2020 18:03:58.388",0.508,1.215,-0.172,2020-02-08 18:03:58.388
"2/8/2020 18:03:58.400",0.652,1.188,-0.246,2020-02-08 18:03:58.400
"2/8/2020 18:03:58.413",0.641,1.227,-0.258,2020-02-08 18:03:58.413
"2/8/2020 18:03:58.425",0.512,1.254,-0.27,2020-02-08 18:03:58.424
"2/8/2020 18:03:58.438",0.434,1.254,-0.289,2020-02-08 18:03:58.437
"2/8/2020 18:03:58.450",0.434,1.207,-0.313,2020-02-08 18:03:58.450
"2/8/2020 18:03:58.463",0.457,1.164,-0.313,2020-02-08 18:03:58.463
"2/8/2020 18:03:58.475",0.371,1.121,-0.301,2020-02-08 18:03:58.474
"2/8/2020 18:03:58.488",0.254,1.043,-0.301,2020-02-08 18:03:58.487
"2/8/2020 18:03:58.500",0.141,0.973,-0.32,2020-02-08 18:03:58.500
"2/8/2020 18:03:58.513",0.086,0.93,-0.328,2020-02-08 18:03:58.513
"2/8/2020 18:03:58.525",-0.012,0.918,-0.309,2020-02-08 18:03:58.525
"2/8/2020 18:03:58.538",-0.074,0.914,-0.297,2020-02-08 18:03:58.538
"2/8/2020 18:03:58.550",-0.074,0.93,-0.297,2020-02-08 18:03:58.549
"2/8/2020 18:03:58.563",-0.055,0.938,-0.293,2020-02-08 18:03:58.562
"2/8/2020 18:03:58.575",-0.07,0.902,-0.273,2020-02-08 18:03:58.575
"2/8/2020 18:03:58.588",-0.164,0.824,-0.258,2020-02-08 18:03:58.588
"2/8/2020 18:03:58.600",-0.211,0.75,-0.246,2020-02-08 18:03:58.599
"2/8/2020 18:03:58.613",-0.215,0.715,-0.203,2020-02-08 18:03:58.612
"2/8/2020 18:03:58.625",-0.191,0.703,-0.16,2020-02-08 18:03:58.625
"2/8/2020 18:03:58.638",-0.156,0.723,-0.109,2020-02-08 18:03:58.638
"2/8/2020 18:03:58.650",-0.152,0.754,-0.09,2020-02-08 18:03:58.650
"2/8/2020 18:03:58.663",-0.211,0.766,-0.074,2020-02-08 18:03:58.663
"2/8/2020 18:03:58.675",-0.313,0.75,-0.008,2020-02-08 18:03:58.674
"2/8/2020 18:03:58.688",-0.391,0.707,0.074,2020-02-08 18:03:58.687
"2/8/2020 18:03:58.700",-0.434,0.695,0.176,2020-02-08 18:03:58.700
"2/8/2020 18:03:58.713",-0.414,0.703,0.238,2020-02-08 18:03:58.713
"2/8/2020 18:03:58.725",-0.219,0.73,0.051,2020-02-08 18:03:58.724
"2/8/2020 18:03:58.738",2.422,0.902,-1.168,2020-02-08 18:03:58.737
"2/8/2020 18:03:58.750",2.465,2.301,0.551,2020-02-08 18:03:58.750
"2/8/2020 18:03:58.763",0.52,1.918,0.816,2020-02-08 18:03:58.763
"2/8/2020 18:03:58.775",-0.359,1.156,0.441,2020-02-08 18:03:58.775
"2/8/2020 18:03:58.788",-0.668,0.43,0.066,2020-02-08 18:03:58.788
"2/8/2020 18:03:58.800",-0.008,0.648,0.246,2020-02-08 18:03:58.799
"2/8/2020 18:03:58.813",0.563,1.418,0.02,2020-02-08 18:03:58.812
"2/8/2020 18:03:58.825",0.668,1.594,0.191,2020-02-08 18:03:58.825
"2/8/2020 18:03:58.838",0.535,1.32,0.285,2020-02-08 18:03:58.838
"2/8/2020 18:03:58.850",0.723,1.219,0.496,2020-02-08 18:03:58.849
"2/8/2020 18:03:58.863",0.664,2.922,0.801,2020-02-08 18:03:58.862
"2/8/2020 18:03:58.875",-0.555,2.148,0.148,2020-02-08 18:03:58.875
"2/8/2020 18:03:58.888",0.051,1.086,-0.242,2020-02-08 18:03:58.888
"2/8/2020 18:03:58.900",0.309,0.613,-0.129,2020-02-08 18:03:58.900
"2/8/2020 18:03:58.913",0.215,0.648,0.145,2020-02-08 18:03:58.913
"2/8/2020 18:03:58.925",0.172,0.891,0.148,2020-02-08 18:03:58.924
"2/8/2020 18:03:58.938",0.461,1.031,0.023,2020-02-08 18:03:58.937
"2/8/2020 18:03:58.950",0.457,0.934,-0.055,2020-02-08 18:03:58.950
"2/8/2020 18:03:58.963",0.359,0.934,-0.117,2020-02-08 18:03:58.963
"2/8/2020 18:03:58.975",0.285,0.961,-0.078,2020-02-08 18:03:58.974
"2/8/2020 18:03:58.988",0.227,0.945,-0.004,2020-02-08 18:03:58.987
"2/8/2020 18:03:59.000",0.234,0.949,-0.047,2020-02-08 18:03:59.000
"2/8/2020 18:03:59.013",0.277,0.969,-0.098,2020-02-08 18:03:59.013
"2/8/2020 18:03:59.025",0.297,0.949,-0.07,2020-02-08 18:03:59.025
"2/8/2020 18:03:59.038",0.352,0.934,-0.043,2020-02-08 18:03:59.038
"2/8/2020 18:03:59.050",0.355,0.938,0.004,2020-02-08 18:03:59.049
"2/8/2020 18:03:59.063",0.379,0.949,0.047,2020-02-08 18:03:59.062
"2/8/2020 18:03:59.075",0.371,0.93,0.055,2020-02-08 18:03:59.075
"2/8/2020 18:03:59.088",0.348,0.934,-0.004,2020-02-08 18:03:59.088
"2/8/2020 18:03:59.100",0.32,0.941,-0.008,2020-02-08 18:03:59.099
"2/8/2020 18:03:59.113",0.34,0.945,0.047,2020-02-08 18:03:59.112
"2/8/2020 18:03:59.125",0.352,0.949,0.109,2020-02-08 18:03:59.125
"2/8/2020 18:03:59.138",0.336,0.965,0.098,2020-02-08 18:03:59.138
"2/8/2020 18:03:59.150",0.324,0.961,0.043,2020-02-08 18:03:59.150
"2/8/2020 18:03:59.163",0.32,0.938,0.035,2020-02-08 18:03:59.163
"2/8/2020 18:03:59.175",0.324,0.945,0.051,2020-02-08 18:03:59.174
"2/8/2020 18:03:59.188",0.34,0.945,0.051,2020-02-08 18:03:59.187
"2/8/2020 18:03:59.200",0.367,0.938,0.004,2020-02-08 18:03:59.200
"2/8/2020 18:03:59.213",0.383,0.941,-0.023,2020-02-08 18:03:59.213
"2/8/2020 18:03:59.225",0.371,0.953,-0.031,2020-02-08 18:03:59.224
"2/8/2020 18:03:59.238",0.348,0.953,-0.027,2020-02-08 18:03:59.237
"2/8/2020 18:03:59.250",0.336,0.949,-0.031,2020-02-08 18:03:59.250
"2/8/2020 18:03:59.263",0.336,0.938,-0.059,2020-02-08 18:03:59.263
"2/8/2020 18:03:59.275",0.336,0.941,-0.047,2020-02-08 18:03:59.275
"2/8/2020 18:03:59.288",0.34,0.945,0.004,2020-02-08 18:03:59.288
"2/8/2020 18:03:59.300",0.352,0.961,0.016,2020-02-08 18:03:59.299
"2/8/2020 18:03:59.313",0.355,0.965,-0.035,2020-02-08 18:03:59.312
"2/8/2020 18:03:59.325",0.336,0.969,-0.055,2020-02-08 18:03:59.325
"2/8/2020 18:03:59.338",0.336,0.969,-0.055,2020-02-08 18:03:59.338
"2/8/2020 18:03:59.350",0.313,0.961,-0.012,2020-02-08 18:03:59.349
"2/8/2020 18:03:59.363",0.281,0.969,0.02,2020-02-08 18:03:59.362
"2/8/2020 18:03:59.375",0.281,0.977,0.035,2020-02-08 18:03:59.375
"2/8/2020 18:03:59.388",0.277,0.961,0.051,2020-02-08 18:03:59.388
"2/8/2020 18:03:59.400",0.281,0.945,0.066,2020-02-08 18:03:59.400
"2/8/2020 18:03:59.413",0.301,0.938,0.082,2020-02-08 18:03:59.413
"2/8/2020 18:03:59.425",0.305,0.977,0.102,2020-02-08 18:03:59.424
"2/8/2020 18:03:59.438",0.32,1,0.086,2020-02-08 18:03:59.437
"2/8/2020 18:03:59.450",0.305,1.027,0.125,2020-02-08 18:03:59.450
"2/8/2020 18:03:59.463",0.262,1.031,0.148,2020-02-08 18:03:59.463
"2/8/2020 18:03:59.475",0.207,1.012,0.156,2020-02-08 18:03:59.474
"2/8/2020 18:03:59.488",0.145,0.922,0.254,2020-02-08 18:03:59.487
"2/8/2020 18:03:59.500",0.008,0.805,0.555,2020-02-08 18:03:59.500
"2/8/2020 18:03:59.513",-0.09,0.906,0.723,2020-02-08 18:03:59.513
"2/8/2020 18:03:59.525",-0.031,1.109,0.723,2020-02-08 18:03:59.525
"2/8/2020 18:03:59.538",0.113,1.129,0.57,2020-02-08 18:03:59.538
"2/8/2020 18:03:59.550",0.234,1.066,0.5,2020-02-08 18:03:59.549
"2/8/2020 18:03:59.563",0.129,0.969,0.598,2020-02-08 18:03:59.562
"2/8/2020 18:03:59.575",-0.078,0.914,0.766,2020-02-08 18:03:59.575
"2/8/2020 18:03:59.588",-0.09,0.891,0.941,2020-02-08 18:03:59.588
"2/8/2020 18:03:59.600",0.055,0.863,1.121,2020-02-08 18:03:59.599
"2/8/2020 18:03:59.613",0.242,0.922,1.184,2020-02-08 18:03:59.612
"2/8/2020 18:03:59.625",0.484,1.102,1.07,2020-02-08 18:03:59.625
"2/8/2020 18:03:59.638",0.559,1.246,0.762,2020-02-08 18:03:59.638
"2/8/2020 18:03:59.650",0.492,1.25,0.488,2020-02-08 18:03:59.650
"2/8/2020 18:03:59.663",0.344,1.176,0.297,2020-02-08 18:03:59.663
"2/8/2020 18:03:59.675",0.148,1.113,0.172,2020-02-08 18:03:59.674
"2/8/2020 18:03:59.688",-0.039,1.074,0.102,2020-02-08 18:03:59.687
"2/8/2020 18:03:59.700",-0.164,1.066,0.059,2020-02-08 18:03:59.700
"2/8/2020 18:03:59.713",-0.234,1.023,-0.004,2020-02-08 18:03:59.713
"2/8/2020 18:03:59.725",-0.281,0.984,-0.105,2020-02-08 18:03:59.724
"2/8/2020 18:03:59.738",-0.305,0.957,-0.215,2020-02-08 18:03:59.737
"2/8/2020 18:03:59.750",-0.355,0.957,-0.316,2020-02-08 18:03:59.750
"2/8/2020 18:03:59.763",-0.418,0.996,-0.34,2020-02-08 18:03:59.763
"2/8/2020 18:03:59.775",-0.473,0.992,-0.293,2020-02-08 18:03:59.775
"2/8/2020 18:03:59.788",-0.496,0.93,-0.215,2020-02-08 18:03:59.788
"2/8/2020 18:03:59.800",-0.465,0.852,-0.152,2020-02-08 18:03:59.799
"2/8/2020 18:03:59.813",-0.371,0.766,-0.098,2020-02-08 18:03:59.812
"2/8/2020 18:03:59.825",-0.254,0.734,-0.094,2020-02-08 18:03:59.825
"2/8/2020 18:03:59.838",-0.176,0.73,-0.129,2020-02-08 18:03:59.838
"2/8/2020 18:03:59.850",-0.129,0.719,-0.141,2020-02-08 18:03:59.849
"2/8/2020 18:03:59.863",-0.129,0.684,-0.117,2020-02-08 18:03:59.862
"2/8/2020 18:03:59.875",-0.137,0.672,-0.105,2020-02-08 18:03:59.875
"2/8/2020 18:03:59.888",-0.121,0.695,-0.152,2020-02-08 18:03:59.888
"2/8/2020 18:03:59.900",-0.012,0.668,-0.184,2020-02-08 18:03:59.900
"2/8/2020 18:03:59.913",0.141,0.645,-0.141,2020-02-08 18:03:59.913
"2/8/2020 18:03:59.925",0.207,0.676,-0.098,2020-02-08 18:03:59.924
"2/8/2020 18:03:59.938",0.223,0.742,-0.152,2020-02-08 18:03:59.937
"2/8/2020 18:03:59.950",0.316,0.785,-0.125,2020-02-08 18:03:59.950
"2/8/2020 18:03:59.963",-0.316,0.906,-0.059,2020-02-08 18:03:59.963
"2/8/2020 18:03:59.975",-1.133,0.715,-0.172,2020-02-08 18:03:59.974
"2/8/2020 18:03:59.988",-1.359,0.727,0.008,2020-02-08 18:03:59.987
"2/8/2020 18:04:00.000",-1.211,0.746,0.027,2020-02-08 18:04:00.000
"2/8/2020 18:04:00.013",-0.883,0.875,0.203,2020-02-08 18:04:00.013
"2/8/2020 18:04:00.025",-0.402,1.039,0.277,2020-02-08 18:04:00.025
"2/8/2020 18:04:00.038",-0.152,1.152,0.223,2020-02-08 18:04:00.038
"2/8/2020 18:04:00.050",-0.254,1.156,0.156,2020-02-08 18:04:00.049
"2/8/2020 18:04:00.063",-0.52,1.043,0.094,2020-02-08 18:04:00.062
"2/8/2020 18:04:00.075",-0.641,0.93,0.07,2020-02-08 18:04:00.075
"2/8/2020 18:04:00.088",-0.602,0.895,0.039,2020-02-08 18:04:00.088
"2/8/2020 18:04:00.100",-0.457,0.895,0.047,2020-02-08 18:04:00.099
"2/8/2020 18:04:00.113",-0.332,0.875,0.043,2020-02-08 18:04:00.112
"2/8/2020 18:04:00.125",-0.281,0.828,0.035,2020-02-08 18:04:00.125
"2/8/2020 18:04:00.138",-0.301,0.813,0.07,2020-02-08 18:04:00.138
"2/8/2020 18:04:00.150",-0.402,0.816,0.148,2020-02-08 18:04:00.150
"2/8/2020 18:04:00.163",-0.5,0.84,0.191,2020-02-08 18:04:00.163
"2/8/2020 18:04:00.175",-0.492,0.879,0.195,2020-02-08 18:04:00.174
"2/8/2020 18:04:00.188",-0.449,0.895,0.16,2020-02-08 18:04:00.187
"2/8/2020 18:04:00.200",-0.367,0.887,0.102,2020-02-08 18:04:00.200
"2/8/2020 18:04:00.213",-0.305,0.859,0.039,2020-02-08 18:04:00.213
"2/8/2020 18:04:00.225",-0.25,0.848,-0.02,2020-02-08 18:04:00.224
"2/8/2020 18:04:00.238",-0.18,0.855,-0.074,2020-02-08 18:04:00.237
"2/8/2020 18:04:00.250",-0.145,0.863,-0.145,2020-02-08 18:04:00.250
"2/8/2020 18:04:00.263",-0.156,0.902,-0.211,2020-02-08 18:04:00.263
"2/8/2020 18:04:00.275",-0.16,0.941,-0.238,2020-02-08 18:04:00.275
"2/8/2020 18:04:00.288",-0.07,0.992,-0.23,2020-02-08 18:04:00.288
"2/8/2020 18:04:00.300",0.023,1.078,-0.23,2020-02-08 18:04:00.299
"2/8/2020 18:04:00.313",0.039,1.207,-0.297,2020-02-08 18:04:00.312
"2/8/2020 18:04:00.325",0.09,1.434,-0.285,2020-02-08 18:04:00.325
"2/8/2020 18:04:00.338",0.063,1.559,-0.344,2020-02-08 18:04:00.338
"2/8/2020 18:04:00.350",0.004,1.484,-0.422,2020-02-08 18:04:00.349
"2/8/2020 18:04:00.363",-0.133,1.313,-0.441,2020-02-08 18:04:00.362
"2/8/2020 18:04:00.375",-0.262,1.156,-0.324,2020-02-08 18:04:00.375
"2/8/2020 18:04:00.388",-0.34,1.035,-0.18,2020-02-08 18:04:00.388
"2/8/2020 18:04:00.400",-0.438,0.941,-0.039,2020-02-08 18:04:00.400
"2/8/2020 18:04:00.413",-0.586,0.777,0.133,2020-02-08 18:04:00.413
"2/8/2020 18:04:00.425",-0.719,0.566,0.418,2020-02-08 18:04:00.424
"2/8/2020 18:04:00.438",-0.742,0.496,0.641,2020-02-08 18:04:00.437
"2/8/2020 18:04:00.450",-0.613,0.535,0.664,2020-02-08 18:04:00.450
"2/8/2020 18:04:00.463",-0.461,0.641,0.621,2020-02-08 18:04:00.463
"2/8/2020 18:04:00.475",-0.195,0.852,0.496,2020-02-08 18:04:00.474
"2/8/2020 18:04:00.488",0.199,1.02,0.426,2020-02-08 18:04:00.487
"2/8/2020 18:04:00.500",0.477,0.984,0.422,2020-02-08 18:04:00.500
"2/8/2020 18:04:00.513",0.641,0.922,0.395,2020-02-08 18:04:00.513
"2/8/2020 18:04:00.525",0.664,1.031,0.367,2020-02-08 18:04:00.525
"2/8/2020 18:04:00.538",0.871,1.125,0.309,2020-02-08 18:04:00.538
"2/8/2020 18:04:00.550",1.27,1.141,0.176,2020-02-08 18:04:00.549
"2/8/2020 18:04:00.563",1.828,1.309,0.297,2020-02-08 18:04:00.562
"2/8/2020 18:04:00.575",1.742,1.441,0.5,2020-02-08 18:04:00.575
"2/8/2020 18:04:00.588",0.875,1.086,0.48,2020-02-08 18:04:00.588
"2/8/2020 18:04:00.600",-0.254,0.875,0.531,2020-02-08 18:04:00.599
"2/8/2020 18:04:00.613",-1.195,0.879,0.484,2020-02-08 18:04:00.612
"2/8/2020 18:04:00.625",-1.164,0.984,0.301,2020-02-08 18:04:00.625
"2/8/2020 18:04:00.638",-0.375,1.07,0.176,2020-02-08 18:04:00.638
"2/8/2020 18:04:00.650",0.309,0.996,-0.078,2020-02-08 18:04:00.650
"2/8/2020 18:04:00.663",0.676,0.996,-0.25,2020-02-08 18:04:00.663
"2/8/2020 18:04:00.675",0.395,0.953,-0.047,2020-02-08 18:04:00.674
"2/8/2020 18:04:00.688",-0.098,0.867,0.242,2020-02-08 18:04:00.687
"2/8/2020 18:04:00.700",-0.082,0.895,0.281,2020-02-08 18:04:00.700
"2/8/2020 18:04:00.713",0.34,0.961,0.23,2020-02-08 18:04:00.713
"2/8/2020 18:04:00.725",0.609,0.941,0.313,2020-02-08 18:04:00.724
"2/8/2020 18:04:00.738",0.473,0.922,0.309,2020-02-08 18:04:00.737
"2/8/2020 18:04:00.750",0.313,0.926,0.141,2020-02-08 18:04:00.750
"2/8/2020 18:04:00.763",0.352,0.941,0.078,2020-02-08 18:04:00.763
"2/8/2020 18:04:00.775",0.406,0.895,0.219,2020-02-08 18:04:00.775
"2/8/2020 18:04:00.788",0.453,0.879,0.246,2020-02-08 18:04:00.788
"2/8/2020 18:04:00.800",0.531,0.887,0.16,2020-02-08 18:04:00.799
"2/8/2020 18:04:00.813",0.574,0.91,-0.078,2020-02-08 18:04:00.812
"2/8/2020 18:04:00.825",0.523,0.914,-0.234,2020-02-08 18:04:00.825
"2/8/2020 18:04:00.838",0.441,0.926,-0.23,2020-02-08 18:04:00.838
"2/8/2020 18:04:00.850",0.457,0.926,-0.105,2020-02-08 18:04:00.849
"2/8/2020 18:04:00.863",0.496,0.91,0.027,2020-02-08 18:04:00.862
"2/8/2020 18:04:00.875",0.523,0.926,0.172,2020-02-08 18:04:00.875
"2/8/2020 18:04:00.888",0.613,0.949,0.273,2020-02-08 18:04:00.888
"2/8/2020 18:04:00.900",0.703,0.957,0.418,2020-02-08 18:04:00.900
"2/8/2020 18:04:00.913",0.801,0.953,0.66,2020-02-08 18:04:00.913
"2/8/2020 18:04:00.925",0.941,1.012,1.035,2020-02-08 18:04:00.924
"2/8/2020 18:04:00.938",1.094,1.168,1.461,2020-02-08 18:04:00.937
"2/8/2020 18:04:00.950",0.969,1.805,1.535,2020-02-08 18:04:00.950
"2/8/2020 18:04:00.963",0.438,2.484,1.387,2020-02-08 18:04:00.963
"2/8/2020 18:04:00.975",-0.133,2.473,1.258,2020-02-08 18:04:00.974
"2/8/2020 18:04:00.988",-0.422,2.379,1.184,2020-02-08 18:04:00.987
"2/8/2020 18:04:01.000",-0.688,2.16,1.156,2020-02-08 18:04:01.000
"2/8/2020 18:04:01.013",-0.977,1.77,1.105,2020-02-08 18:04:01.013
"2/8/2020 18:04:01.025",-1.082,1.188,0.875,2020-02-08 18:04:01.025
"2/8/2020 18:04:01.038",-0.801,0.586,0.281,2020-02-08 18:04:01.038
"2/8/2020 18:04:01.050",-0.473,-0.07,0.27,2020-02-08 18:04:01.049
"2/8/2020 18:04:01.063",-0.887,-0.422,0.441,2020-02-08 18:04:01.062
"2/8/2020 18:04:01.075",-1.16,-0.219,0.328,2020-02-08 18:04:01.075
"2/8/2020 18:04:01.088",-1.105,0.117,0.195,2020-02-08 18:04:01.088
"2/8/2020 18:04:01.100",-1,0.473,0.297,2020-02-08 18:04:01.099
"2/8/2020 18:04:01.113",-0.848,0.902,0.414,2020-02-08 18:04:01.112
"2/8/2020 18:04:01.125",-0.629,1.195,0.336,2020-02-08 18:04:01.125
"2/8/2020 18:04:01.138",-0.359,1.375,0.211,2020-02-08 18:04:01.138
"2/8/2020 18:04:01.150",-0.059,1.551,0.133,2020-02-08 18:04:01.150
"2/8/2020 18:04:01.163",0.227,1.852,0.027,2020-02-08 18:04:01.163
"2/8/2020 18:04:01.175",0.652,2.352,-0.117,2020-02-08 18:04:01.174
"2/8/2020 18:04:01.188",0.898,2.645,-0.273,2020-02-08 18:04:01.187
"2/8/2020 18:04:01.200",1,2.387,-0.344,2020-02-08 18:04:01.200
"2/8/2020 18:04:01.213",1.23,1.887,-0.457,2020-02-08 18:04:01.213
"2/8/2020 18:04:01.225",1.293,1.488,-0.543,2020-02-08 18:04:01.224
"2/8/2020 18:04:01.238",1.066,1.473,-0.566,2020-02-08 18:04:01.237
"2/8/2020 18:04:01.250",0.684,1.449,-0.688,2020-02-08 18:04:01.250
"2/8/2020 18:04:01.263",0.434,1.211,-0.754,2020-02-08 18:04:01.263
"2/8/2020 18:04:01.275",0.398,0.891,-0.816,2020-02-08 18:04:01.275
"2/8/2020 18:04:01.288",1.277,0.535,-0.477,2020-02-08 18:04:01.288
"2/8/2020 18:04:01.300",1.555,0.742,0.297,2020-02-08 18:04:01.299
"2/8/2020 18:04:01.313",0.648,1.168,0.227,2020-02-08 18:04:01.312
"2/8/2020 18:04:01.325",-0.098,0.879,-0.215,2020-02-08 18:04:01.325
"2/8/2020 18:04:01.338",0.047,0.707,-0.09,2020-02-08 18:04:01.338
"2/8/2020 18:04:01.350",0.406,0.828,0.293,2020-02-08 18:04:01.349
"2/8/2020 18:04:01.363",0.465,1.039,0.531,2020-02-08 18:04:01.362
"2/8/2020 18:04:01.375",0.395,1.023,0.551,2020-02-08 18:04:01.375
"2/8/2020 18:04:01.388",0.277,0.949,0.441,2020-02-08 18:04:01.388
"2/8/2020 18:04:01.400",0.063,0.844,0.301,2020-02-08 18:04:01.400
"2/8/2020 18:04:01.413",-0.051,0.84,0.25,2020-02-08 18:04:01.413
"2/8/2020 18:04:01.425",-0.105,0.918,0.172,2020-02-08 18:04:01.424
"2/8/2020 18:04:01.438",-0.176,0.973,0.07,2020-02-08 18:04:01.437
"2/8/2020 18:04:01.450",-0.133,1.004,0.074,2020-02-08 18:04:01.450
"2/8/2020 18:04:01.463",-0.145,1.074,0.117,2020-02-08 18:04:01.463
"2/8/2020 18:04:01.475",-0.223,1.137,0.184,2020-02-08 18:04:01.474
"2/8/2020 18:04:01.488",-0.293,1.133,0.199,2020-02-08 18:04:01.487
"2/8/2020 18:04:01.500",-0.363,1.148,0.199,2020-02-08 18:04:01.500
"2/8/2020 18:04:01.513",-0.387,1.219,0.164,2020-02-08 18:04:01.513
"2/8/2020 18:04:01.525",-0.332,1.309,0.043,2020-02-08 18:04:01.525
"2/8/2020 18:04:01.538",-0.227,1.32,-0.094,2020-02-08 18:04:01.538
"2/8/2020 18:04:01.550",-0.059,1.258,-0.172,2020-02-08 18:04:01.549
"2/8/2020 18:04:01.563",0.008,1.152,-0.273,2020-02-08 18:04:01.562
"2/8/2020 18:04:01.575",-0.02,1.109,-0.379,2020-02-08 18:04:01.575
"2/8/2020 18:04:01.588",-0.445,1.004,-0.555,2020-02-08 18:04:01.588
"2/8/2020 18:04:01.600",-0.727,0.672,-0.566,2020-02-08 18:04:01.599
"2/8/2020 18:04:01.613",-0.789,0.648,-0.391,2020-02-08 18:04:01.612
"2/8/2020 18:04:01.625",-0.82,0.75,-0.289,2020-02-08 18:04:01.625
"2/8/2020 18:04:01.638",-0.879,0.84,-0.223,2020-02-08 18:04:01.638
"2/8/2020 18:04:01.650",-0.992,0.93,0.039,2020-02-08 18:04:01.650
"2/8/2020 18:04:01.663",-0.973,1.051,0.441,2020-02-08 18:04:01.663
"2/8/2020 18:04:01.675",-0.859,1.059,0.871,2020-02-08 18:04:01.674
"2/8/2020 18:04:01.688",-0.645,0.969,1.227,2020-02-08 18:04:01.687
"2/8/2020 18:04:01.700",-0.27,0.93,1.266,2020-02-08 18:04:01.700
"2/8/2020 18:04:01.713",0.172,0.988,1.207,2020-02-08 18:04:01.713
"2/8/2020 18:04:01.725",0.344,1.031,1.117,2020-02-08 18:04:01.724
"2/8/2020 18:04:01.738",0.301,0.945,0.953,2020-02-08 18:04:01.737
"2/8/2020 18:04:01.750",-0.219,0.836,0.879,2020-02-08 18:04:01.750
"2/8/2020 18:04:01.763",-1.227,0.48,0.98,2020-02-08 18:04:01.763
"2/8/2020 18:04:01.775",-1.496,0.484,1.211,2020-02-08 18:04:01.775
"2/8/2020 18:04:01.788",-0.207,0.918,0.777,2020-02-08 18:04:01.788
"2/8/2020 18:04:01.800",1.082,1.449,0.445,2020-02-08 18:04:01.799
"2/8/2020 18:04:01.813",1.285,1.832,0.301,2020-02-08 18:04:01.812
"2/8/2020 18:04:01.825",0.211,2.234,-0.102,2020-02-08 18:04:01.825
"2/8/2020 18:04:01.838",-0.828,1.867,-0.355,2020-02-08 18:04:01.838
"2/8/2020 18:04:01.850",-0.148,1.191,-0.559,2020-02-08 18:04:01.849
"2/8/2020 18:04:01.863",0.543,0.715,-0.422,2020-02-08 18:04:01.862
"2/8/2020 18:04:01.875",0.672,0.555,-0.078,2020-02-08 18:04:01.875
"2/8/2020 18:04:01.888",0.199,0.75,-0.031,2020-02-08 18:04:01.888
"2/8/2020 18:04:01.900",0.047,1.008,-0.137,2020-02-08 18:04:01.900
"2/8/2020 18:04:01.913",0.305,1.133,-0.191,2020-02-08 18:04:01.913
"2/8/2020 18:04:01.925",0.441,1.07,-0.125,2020-02-08 18:04:01.924
"2/8/2020 18:04:01.938",0.324,1.047,-0.051,2020-02-08 18:04:01.937
"2/8/2020 18:04:01.950",0.219,1.043,-0.035,2020-02-08 18:04:01.950
"2/8/2020 18:04:01.963",0.258,1.043,-0.137,2020-02-08 18:04:01.963
"2/8/2020 18:04:01.975",0.336,0.988,-0.242,2020-02-08 18:04:01.974
"2/8/2020 18:04:01.988",0.348,0.941,-0.273,2020-02-08 18:04:01.987
"2/8/2020 18:04:02.000",0.309,0.93,-0.285,2020-02-08 18:04:02.000
"2/8/2020 18:04:02.013",0.297,0.934,-0.281,2020-02-08 18:04:02.013
"2/8/2020 18:04:02.025",0.281,0.961,-0.305,2020-02-08 18:04:02.025
"2/8/2020 18:04:02.038",0.324,0.953,-0.352,2020-02-08 18:04:02.038
"2/8/2020 18:04:02.050",0.359,0.941,-0.363,2020-02-08 18:04:02.049
"2/8/2020 18:04:02.063",0.371,0.918,-0.316,2020-02-08 18:04:02.062
"2/8/2020 18:04:02.075",0.355,0.922,-0.262,2020-02-08 18:04:02.075
"2/8/2020 18:04:02.088",0.328,0.926,-0.227,2020-02-08 18:04:02.088
"2/8/2020 18:04:02.100",0.289,0.922,-0.195,2020-02-08 18:04:02.099
"2/8/2020 18:04:02.113",0.246,0.93,-0.16,2020-02-08 18:04:02.112
"2/8/2020 18:04:02.125",0.211,0.953,-0.125,2020-02-08 18:04:02.125
"2/8/2020 18:04:02.138",0.188,0.977,-0.117,2020-02-08 18:04:02.138
"2/8/2020 18:04:02.150",0.215,0.984,-0.148,2020-02-08 18:04:02.150
"2/8/2020 18:04:02.163",0.184,0.98,-0.215,2020-02-08 18:04:02.163
"2/8/2020 18:04:02.175",0.129,0.918,-0.168,2020-02-08 18:04:02.174
"2/8/2020 18:04:02.188",0.055,0.922,-0.094,2020-02-08 18:04:02.187
"2/8/2020 18:04:02.200",0.035,0.965,-0.086,2020-02-08 18:04:02.200
"2/8/2020 18:04:02.213",0.059,0.977,-0.098,2020-02-08 18:04:02.213
"2/8/2020 18:04:02.225",0.063,0.973,-0.129,2020-02-08 18:04:02.224
"2/8/2020 18:04:02.238",0.023,0.957,-0.16,2020-02-08 18:04:02.237
"2/8/2020 18:04:02.250",-0.043,0.949,-0.191,2020-02-08 18:04:02.250
"2/8/2020 18:04:02.263",0.016,0.945,-0.203,2020-02-08 18:04:02.263
"2/8/2020 18:04:02.275",0.086,0.973,-0.215,2020-02-08 18:04:02.275
"2/8/2020 18:04:02.288",0.09,0.973,-0.168,2020-02-08 18:04:02.288
"2/8/2020 18:04:02.300",0.027,0.98,-0.078,2020-02-08 18:04:02.299
"2/8/2020 18:04:02.313",0.012,0.961,0.012,2020-02-08 18:04:02.312
"2/8/2020 18:04:02.325",0.023,0.961,0.043,2020-02-08 18:04:02.325
"2/8/2020 18:04:02.338",0.051,0.98,0.059,2020-02-08 18:04:02.338
"2/8/2020 18:04:02.350",0.031,1,0.074,2020-02-08 18:04:02.349
"2/8/2020 18:04:02.363",0.02,0.988,0.051,2020-02-08 18:04:02.362
"2/8/2020 18:04:02.375",0.023,1,0.035,2020-02-08 18:04:02.375
"2/8/2020 18:04:02.388",0.051,1.004,0.012,2020-02-08 18:04:02.388
"2/8/2020 18:04:02.400",0.082,0.98,-0.016,2020-02-08 18:04:02.400
"2/8/2020 18:04:02.413",0.055,0.941,-0.008,2020-02-08 18:04:02.413
"2/8/2020 18:04:02.425",0.035,0.938,0.047,2020-02-08 18:04:02.424
"2/8/2020 18:04:02.438",0.027,0.969,0.121,2020-02-08 18:04:02.437
"2/8/2020 18:04:02.450",0.035,0.98,0.137,2020-02-08 18:04:02.450
"2/8/2020 18:04:02.463",0.078,0.992,0.105,2020-02-08 18:04:02.463
"2/8/2020 18:04:02.475",0.145,0.984,0.043,2020-02-08 18:04:02.474
"2/8/2020 18:04:02.488",0.191,0.969,-0.008,2020-02-08 18:04:02.487
"2/8/2020 18:04:02.500",0.145,0.961,-0.027,2020-02-08 18:04:02.500
"2/8/2020 18:04:02.513",0.105,0.949,-0.066,2020-02-08 18:04:02.513
"2/8/2020 18:04:02.525",0.109,0.941,-0.121,2020-02-08 18:04:02.525
"2/8/2020 18:04:02.538",0.094,0.945,-0.098,2020-02-08 18:04:02.538
"2/8/2020 18:04:02.550",0.07,0.949,-0.043,2020-02-08 18:04:02.549
"2/8/2020 18:04:02.563",0.066,0.965,0.02,2020-02-08 18:04:02.562
"2/8/2020 18:04:02.575",0.09,0.98,0.055,2020-02-08 18:04:02.575
"2/8/2020 18:04:02.588",0.109,0.977,0.086,2020-02-08 18:04:02.588
"2/8/2020 18:04:02.600",0.086,0.973,0.102,2020-02-08 18:04:02.599
"2/8/2020 18:04:02.613",0.078,0.957,0.098,2020-02-08 18:04:02.612
"2/8/2020 18:04:02.625",0.059,0.961,0.074,2020-02-08 18:04:02.625
"2/8/2020 18:04:02.638",0.031,0.953,0.051,2020-02-08 18:04:02.638
"2/8/2020 18:04:02.650",0.012,0.945,0.047,2020-02-08 18:04:02.650
"2/8/2020 18:04:02.663",0.039,0.949,0.039,2020-02-08 18:04:02.663
"2/8/2020 18:04:02.675",0.082,0.953,0.012,2020-02-08 18:04:02.674
"2/8/2020 18:04:02.688",0.152,0.949,-0.023,2020-02-08 18:04:02.687
"2/8/2020 18:04:02.700",0.195,0.953,-0.043,2020-02-08 18:04:02.700
"2/8/2020 18:04:02.713",0.117,0.934,-0.043,2020-02-08 18:04:02.713
"2/8/2020 18:04:02.725",0.121,0.926,-0.098,2020-02-08 18:04:02.724
"2/8/2020 18:04:02.738",0.195,0.938,-0.129,2020-02-08 18:04:02.737
"2/8/2020 18:04:02.750",0.25,0.922,-0.125,2020-02-08 18:04:02.750
"2/8/2020 18:04:02.763",0.227,0.898,-0.074,2020-02-08 18:04:02.763
"2/8/2020 18:04:02.775",0.234,0.922,-0.051,2020-02-08 18:04:02.775
"2/8/2020 18:04:02.788",0.281,0.938,-0.105,2020-02-08 18:04:02.788
"2/8/2020 18:04:02.800",0.387,0.945,-0.172,2020-02-08 18:04:02.799
"2/8/2020 18:04:02.813",0.348,0.922,-0.152,2020-02-08 18:04:02.812
"2/8/2020 18:04:02.825",0.344,0.902,-0.102,2020-02-08 18:04:02.825
"2/8/2020 18:04:02.838",0.375,0.902,-0.078,2020-02-08 18:04:02.838
"2/8/2020 18:04:02.850",0.402,0.898,-0.07,2020-02-08 18:04:02.849
"2/8/2020 18:04:02.863",0.41,0.895,-0.027,2020-02-08 18:04:02.862
"2/8/2020 18:04:02.875",0.449,0.887,0.008,2020-02-08 18:04:02.875
"2/8/2020 18:04:02.888",0.473,0.863,0.043,2020-02-08 18:04:02.888
"2/8/2020 18:04:02.900",0.508,0.863,0.066,2020-02-08 18:04:02.900
"2/8/2020 18:04:02.913",0.527,0.879,0.117,2020-02-08 18:04:02.913
"2/8/2020 18:04:02.925",0.574,0.895,0.109,2020-02-08 18:04:02.924
"2/8/2020 18:04:02.938",0.602,0.906,0.066,2020-02-08 18:04:02.937
"2/8/2020 18:04:02.950",0.574,0.945,0.063,2020-02-08 18:04:02.950
"2/8/2020 18:04:02.963",0.5,1.008,0.188,2020-02-08 18:04:02.963
"2/8/2020 18:04:02.975",0.684,0.703,1.184,2020-02-08 18:04:02.974
"2/8/2020 18:04:02.988",1.406,0.598,1.309,2020-02-08 18:04:02.987
"2/8/2020 18:04:03.000",1.434,1.16,1.125,2020-02-08 18:04:03.000
"2/8/2020 18:04:03.013",0.98,1.695,0.852,2020-02-08 18:04:03.013
"2/8/2020 18:04:03.025",0.426,2.172,0.617,2020-02-08 18:04:03.025
"2/8/2020 18:04:03.038",0.234,2.594,0.422,2020-02-08 18:04:03.038
"2/8/2020 18:04:03.050",0.008,2.852,0.473,2020-02-08 18:04:03.049
"2/8/2020 18:04:03.063",-0.227,2.969,0.703,2020-02-08 18:04:03.062
"2/8/2020 18:04:03.075",-0.531,2.496,0.691,2020-02-08 18:04:03.075
"2/8/2020 18:04:03.088",-0.398,1.887,0.453,2020-02-08 18:04:03.088
"2/8/2020 18:04:03.100",0.414,1.398,0.18,2020-02-08 18:04:03.099
"2/8/2020 18:04:03.113",0.43,1.152,0.434,2020-02-08 18:04:03.112
"2/8/2020 18:04:03.125",-0.336,0.957,0.352,2020-02-08 18:04:03.125
"2/8/2020 18:04:03.138",-0.855,0.973,0.082,2020-02-08 18:04:03.138
"2/8/2020 18:04:03.150",-0.996,1.004,-0.121,2020-02-08 18:04:03.150
"2/8/2020 18:04:03.163",-0.965,0.801,0.063,2020-02-08 18:04:03.163
"2/8/2020 18:04:03.175",-1.059,0.559,0.262,2020-02-08 18:04:03.174
"2/8/2020 18:04:03.188",-1.008,0.453,0.32,2020-02-08 18:04:03.187
"2/8/2020 18:04:03.200",-0.758,0.496,0.266,2020-02-08 18:04:03.200
"2/8/2020 18:04:03.213",-0.52,0.57,0.262,2020-02-08 18:04:03.213
"2/8/2020 18:04:03.225",-0.328,0.672,0.211,2020-02-08 18:04:03.224
"2/8/2020 18:04:03.238",-0.152,0.828,0.141,2020-02-08 18:04:03.237
"2/8/2020 18:04:03.250",0.016,0.98,0.094,2020-02-08 18:04:03.250
"2/8/2020 18:04:03.263",0.223,1.063,0.043,2020-02-08 18:04:03.263
"2/8/2020 18:04:03.275",0.406,1.141,0.039,2020-02-08 18:04:03.275
"2/8/2020 18:04:03.288",0.566,1.172,0.035,2020-02-08 18:04:03.288
"2/8/2020 18:04:03.300",0.707,1.25,0.086,2020-02-08 18:04:03.299
"2/8/2020 18:04:03.313",0.66,1.344,0.172,2020-02-08 18:04:03.312
"2/8/2020 18:04:03.325",0.574,1.574,0.188,2020-02-08 18:04:03.325
"2/8/2020 18:04:03.338",0.668,1.836,0.066,2020-02-08 18:04:03.338
"2/8/2020 18:04:03.350",1.004,2.012,-0.078,2020-02-08 18:04:03.349
"2/8/2020 18:04:03.363",1.203,1.914,-0.184,2020-02-08 18:04:03.362
"2/8/2020 18:04:03.375",1.195,1.75,-0.168,2020-02-08 18:04:03.375
"2/8/2020 18:04:03.388",1.125,1.895,-0.113,2020-02-08 18:04:03.388
"2/8/2020 18:04:03.400",1.07,2.172,-0.172,2020-02-08 18:04:03.400
"2/8/2020 18:04:03.413",1.094,2.102,-0.383,2020-02-08 18:04:03.413
"2/8/2020 18:04:03.425",1.023,1.707,-0.586,2020-02-08 18:04:03.424
"2/8/2020 18:04:03.438",0.879,1.336,-0.602,2020-02-08 18:04:03.437
"2/8/2020 18:04:03.450",0.84,1.137,-0.605,2020-02-08 18:04:03.450
"2/8/2020 18:04:03.463",0.969,1.016,-0.551,2020-02-08 18:04:03.463
"2/8/2020 18:04:03.475",1.109,0.871,-0.445,2020-02-08 18:04:03.474
"2/8/2020 18:04:03.488",1.191,0.73,-0.434,2020-02-08 18:04:03.487
"2/8/2020 18:04:03.500",1.23,0.707,-0.496,2020-02-08 18:04:03.500
"2/8/2020 18:04:03.513",0.754,0.895,-0.266,2020-02-08 18:04:03.513
"2/8/2020 18:04:03.525",-0.918,0.809,-0.129,2020-02-08 18:04:03.525
"2/8/2020 18:04:03.538",-1.902,0.605,0.285,2020-02-08 18:04:03.538
"2/8/2020 18:04:03.550",-1.539,0.805,0.555,2020-02-08 18:04:03.549
"2/8/2020 18:04:03.563",-0.512,0.961,0.766,2020-02-08 18:04:03.562
"2/8/2020 18:04:03.575",0.688,1.367,1.082,2020-02-08 18:04:03.575
"2/8/2020 18:04:03.588",0.781,1.422,0.996,2020-02-08 18:04:03.588
"2/8/2020 18:04:03.600",0.199,0.973,0.672,2020-02-08 18:04:03.599
"2/8/2020 18:04:03.613",-0.348,0.656,0.559,2020-02-08 18:04:03.612
"2/8/2020 18:04:03.625",-0.48,0.754,0.539,2020-02-08 18:04:03.625
"2/8/2020 18:04:03.638",-0.344,0.965,0.496,2020-02-08 18:04:03.638
"2/8/2020 18:04:03.650",-0.191,1.023,0.398,2020-02-08 18:04:03.650
"2/8/2020 18:04:03.663",-0.262,0.902,0.289,2020-02-08 18:04:03.663
"2/8/2020 18:04:03.675",-0.352,0.836,0.199,2020-02-08 18:04:03.674
"2/8/2020 18:04:03.688",-0.316,0.883,0.145,2020-02-08 18:04:03.687
"2/8/2020 18:04:03.700",-0.246,0.914,0.129,2020-02-08 18:04:03.700
"2/8/2020 18:04:03.713",-0.25,0.918,0.141,2020-02-08 18:04:03.713
"2/8/2020 18:04:03.725",-0.297,0.879,0.152,2020-02-08 18:04:03.724
"2/8/2020 18:04:03.738",-0.316,0.879,0.172,2020-02-08 18:04:03.737
"2/8/2020 18:04:03.750",-0.285,0.898,0.164,2020-02-08 18:04:03.750
"2/8/2020 18:04:03.763",-0.289,0.918,0.141,2020-02-08 18:04:03.763
"2/8/2020 18:04:03.775",-0.289,0.914,0.137,2020-02-08 18:04:03.775
"2/8/2020 18:04:03.788",-0.293,0.898,0.172,2020-02-08 18:04:03.788
"2/8/2020 18:04:03.800",-0.277,0.895,0.176,2020-02-08 18:04:03.799
"2/8/2020 18:04:03.813",-0.242,0.906,0.152,2020-02-08 18:04:03.812
"2/8/2020 18:04:03.825",-0.191,0.898,0.117,2020-02-08 18:04:03.825
"2/8/2020 18:04:03.838",-0.121,0.871,0.063,2020-02-08 18:04:03.838
"2/8/2020 18:04:03.850",-0.027,0.832,0.02,2020-02-08 18:04:03.849
"2/8/2020 18:04:03.863",0.047,0.801,0.004,2020-02-08 18:04:03.862
"2/8/2020 18:04:03.875",0.074,0.813,0,2020-02-08 18:04:03.875
"2/8/2020 18:04:03.888",0.016,0.848,0.016,2020-02-08 18:04:03.888
"2/8/2020 18:04:03.900",-0.059,0.891,0.027,2020-02-08 18:04:03.900
"2/8/2020 18:04:03.913",-0.082,0.934,0.035,2020-02-08 18:04:03.913
"2/8/2020 18:04:03.925",-0.031,0.98,0.055,2020-02-08 18:04:03.924
"2/8/2020 18:04:03.938",0.055,1.031,0.035,2020-02-08 18:04:03.937
"2/8/2020 18:04:03.950",0.148,1.094,0.059,2020-02-08 18:04:03.950
"2/8/2020 18:04:03.963",0.344,1.168,0.152,2020-02-08 18:04:03.963
"2/8/2020 18:04:03.975",0.543,1.281,0.258,2020-02-08 18:04:03.974
"2/8/2020 18:04:03.988",0.586,1.367,0.203,2020-02-08 18:04:03.987
"2/8/2020 18:04:04.000",0.43,1.332,0.098,2020-02-08 18:04:04.000
"2/8/2020 18:04:04.013",0.219,1.254,0.109,2020-02-08 18:04:04.013
"2/8/2020 18:04:04.025",0.016,1.129,0.25,2020-02-08 18:04:04.025
"2/8/2020 18:04:04.038",-0.234,0.82,0.504,2020-02-08 18:04:04.038
"2/8/2020 18:04:04.050",-0.473,0.633,0.766,2020-02-08 18:04:04.049
"2/8/2020 18:04:04.063",-0.414,0.676,0.777,2020-02-08 18:04:04.062
"2/8/2020 18:04:04.075",-0.301,0.754,0.668,2020-02-08 18:04:04.075
"2/8/2020 18:04:04.088",-0.23,0.824,0.629,2020-02-08 18:04:04.088
"2/8/2020 18:04:04.100",-0.172,0.84,0.469,2020-02-08 18:04:04.099
"2/8/2020 18:04:04.113",-0.09,0.805,0.371,2020-02-08 18:04:04.112
"2/8/2020 18:04:04.125",-0.023,0.73,0.355,2020-02-08 18:04:04.125
"2/8/2020 18:04:04.138",0.129,0.719,0.328,2020-02-08 18:04:04.138
"2/8/2020 18:04:04.150",0.152,0.688,0.543,2020-02-08 18:04:04.150
"2/8/2020 18:04:04.163",-0.219,0.637,0.988,2020-02-08 18:04:04.163
"2/8/2020 18:04:04.175",-0.469,0.883,1.195,2020-02-08 18:04:04.174
"2/8/2020 18:04:04.188",-0.328,1.207,0.973,2020-02-08 18:04:04.187
"2/8/2020 18:04:04.200",0.215,1.57,0.512,2020-02-08 18:04:04.200
"2/8/2020 18:04:04.213",0.441,1.445,0.246,2020-02-08 18:04:04.213
"2/8/2020 18:04:04.225",0.441,1.094,0.113,2020-02-08 18:04:04.224
"2/8/2020 18:04:04.238",0.16,0.801,0.098,2020-02-08 18:04:04.237
"2/8/2020 18:04:04.250",-0.172,0.734,0.203,2020-02-08 18:04:04.250
"2/8/2020 18:04:04.263",-0.203,0.797,0.301,2020-02-08 18:04:04.263
"2/8/2020 18:04:04.275",-0.059,0.883,0.223,2020-02-08 18:04:04.275
"2/8/2020 18:04:04.288",0.102,0.992,0.109,2020-02-08 18:04:04.288
"2/8/2020 18:04:04.300",0.328,1.059,0.055,2020-02-08 18:04:04.299
"2/8/2020 18:04:04.313",0.391,1.039,0.039,2020-02-08 18:04:04.312
"2/8/2020 18:04:04.325",0.297,0.941,0.051,2020-02-08 18:04:04.325
"2/8/2020 18:04:04.338",0.23,0.934,0.086,2020-02-08 18:04:04.338
"2/8/2020 18:04:04.350",0.129,0.965,0.082,2020-02-08 18:04:04.349
"2/8/2020 18:04:04.363",0.137,0.992,0.059,2020-02-08 18:04:04.362
"2/8/2020 18:04:04.375",0.227,0.988,0.047,2020-02-08 18:04:04.375
"2/8/2020 18:04:04.388",0.277,0.961,0.012,2020-02-08 18:04:04.388
"2/8/2020 18:04:04.400",0.328,0.969,0.035,2020-02-08 18:04:04.400
"2/8/2020 18:04:04.413",0.344,0.977,0.059,2020-02-08 18:04:04.413
"2/8/2020 18:04:04.425",0.352,0.988,0.074,2020-02-08 18:04:04.424
"2/8/2020 18:04:04.438",0.371,0.992,0.086,2020-02-08 18:04:04.437
"2/8/2020 18:04:04.450",0.391,1.004,0.113,2020-02-08 18:04:04.450
"2/8/2020 18:04:04.463",0.336,1.004,0.152,2020-02-08 18:04:04.463
"2/8/2020 18:04:04.475",0.352,1.004,0.105,2020-02-08 18:04:04.474
"2/8/2020 18:04:04.488",0.363,0.992,0.035,2020-02-08 18:04:04.487
"2/8/2020 18:04:04.500",0.344,0.977,-0.012,2020-02-08 18:04:04.500
"2/8/2020 18:04:04.513",0.332,0.965,0.031,2020-02-08 18:04:04.513
"2/8/2020 18:04:04.525",0.313,0.977,0.074,2020-02-08 18:04:04.525
"2/8/2020 18:04:04.538",0.309,0.98,0.133,2020-02-08 18:04:04.538
"2/8/2020 18:04:04.550",0.305,0.984,0.203,2020-02-08 18:04:04.549
"2/8/2020 18:04:04.563",0.301,0.984,0.273,2020-02-08 18:04:04.562
"2/8/2020 18:04:04.575",0.316,0.98,0.324,2020-02-08 18:04:04.575
"2/8/2020 18:04:04.588",0.316,0.988,0.32,2020-02-08 18:04:04.588
"2/8/2020 18:04:04.600",0.242,1.027,0.211,2020-02-08 18:04:04.599
"2/8/2020 18:04:04.613",0.191,1.039,0.109,2020-02-08 18:04:04.612
"2/8/2020 18:04:04.625",0.188,1.051,0.047,2020-02-08 18:04:04.625
"2/8/2020 18:04:04.638",0.113,1.039,0.055,2020-02-08 18:04:04.638
"2/8/2020 18:04:04.650",0.09,1.035,0.09,2020-02-08 18:04:04.650
"2/8/2020 18:04:04.663",0.145,1.055,0.125,2020-02-08 18:04:04.663
"2/8/2020 18:04:04.675",0.215,1.082,0.145,2020-02-08 18:04:04.674
"2/8/2020 18:04:04.688",0.285,1.102,0.137,2020-02-08 18:04:04.687
"2/8/2020 18:04:04.700",0.359,1.094,0.125,2020-02-08 18:04:04.700
"2/8/2020 18:04:04.713",0.352,1.078,0.09,2020-02-08 18:04:04.713
"2/8/2020 18:04:04.725",0.32,1.086,0.035,2020-02-08 18:04:04.724
"2/8/2020 18:04:04.738",0.246,1.176,-0.113,2020-02-08 18:04:04.737
"2/8/2020 18:04:04.750",0.191,1.289,-0.266,2020-02-08 18:04:04.750
"2/8/2020 18:04:04.763",0.152,1.352,-0.457,2020-02-08 18:04:04.763
"2/8/2020 18:04:04.775",0.141,1.309,-0.719,2020-02-08 18:04:04.775
"2/8/2020 18:04:04.788",0.098,1.168,-0.973,2020-02-08 18:04:04.788
"2/8/2020 18:04:04.800",-0.105,0.984,-1.203,2020-02-08 18:04:04.799
"2/8/2020 18:04:04.813",-0.043,0.805,-1.18,2020-02-08 18:04:04.812
"2/8/2020 18:04:04.825",0.141,0.832,-1.035,2020-02-08 18:04:04.825
"2/8/2020 18:04:04.838",0.539,1.047,-0.68,2020-02-08 18:04:04.838
"2/8/2020 18:04:04.850",0.59,1.379,-0.492,2020-02-08 18:04:04.849
"2/8/2020 18:04:04.863",0.895,1.418,-0.297,2020-02-08 18:04:04.862
"2/8/2020 18:04:04.875",1.5,1.504,-0.055,2020-02-08 18:04:04.875
"2/8/2020 18:04:04.888",2.07,1.559,0.047,2020-02-08 18:04:04.888
"2/8/2020 18:04:04.900",2.355,1.719,0.059,2020-02-08 18:04:04.900
"2/8/2020 18:04:04.913",2.215,1.961,0.191,2020-02-08 18:04:04.913
"2/8/2020 18:04:04.925",1.684,2.113,0.32,2020-02-08 18:04:04.924
"2/8/2020 18:04:04.938",1.109,2.055,0.367,2020-02-08 18:04:04.937
"2/8/2020 18:04:04.950",0.613,1.863,0.363,2020-02-08 18:04:04.950
"2/8/2020 18:04:04.963",0.199,1.699,0.367,2020-02-08 18:04:04.963
"2/8/2020 18:04:04.975",-0.094,1.465,0.391,2020-02-08 18:04:04.974
"2/8/2020 18:04:04.988",-0.227,1.242,0.445,2020-02-08 18:04:04.987
"2/8/2020 18:04:05.000",-0.176,0.996,0.504,2020-02-08 18:04:05.000
"2/8/2020 18:04:05.013",-0.086,0.848,0.617,2020-02-08 18:04:05.013
"2/8/2020 18:04:05.025",-0.082,0.746,0.703,2020-02-08 18:04:05.025
"2/8/2020 18:04:05.038",-0.121,0.668,0.73,2020-02-08 18:04:05.038
"2/8/2020 18:04:05.050",-0.246,0.586,0.762,2020-02-08 18:04:05.049
"2/8/2020 18:04:05.063",-0.457,0.445,0.715,2020-02-08 18:04:05.062
"2/8/2020 18:04:05.075",-0.637,0.34,0.645,2020-02-08 18:04:05.075
"2/8/2020 18:04:05.088",-0.652,0.234,0.609,2020-02-08 18:04:05.088
"2/8/2020 18:04:05.100",-0.586,0.223,0.59,2020-02-08 18:04:05.099
"2/8/2020 18:04:05.113",-0.547,0.297,0.609,2020-02-08 18:04:05.112
"2/8/2020 18:04:05.125",-0.598,0.5,0.59,2020-02-08 18:04:05.125
"2/8/2020 18:04:05.138",-0.738,0.664,0.508,2020-02-08 18:04:05.138
"2/8/2020 18:04:05.150",-0.879,0.758,0.453,2020-02-08 18:04:05.150
"2/8/2020 18:04:05.163",-1.012,0.883,0.465,2020-02-08 18:04:05.163
"2/8/2020 18:04:05.175",-0.922,1.094,0.34,2020-02-08 18:04:05.174
"2/8/2020 18:04:05.188",1.152,1.266,-1.641,2020-02-08 18:04:05.187
"2/8/2020 18:04:05.200",3.027,4.168,2.789,2020-02-08 18:04:05.200
"2/8/2020 18:04:05.213",0.734,2.75,0.836,2020-02-08 18:04:05.213
"2/8/2020 18:04:05.225",-1.082,0.867,-0.25,2020-02-08 18:04:05.224
"2/8/2020 18:04:05.238",-1.609,0.293,-0.016,2020-02-08 18:04:05.237
"2/8/2020 18:04:05.250",-0.395,0.43,0.508,2020-02-08 18:04:05.250
"2/8/2020 18:04:05.263",0.227,0.816,0.414,2020-02-08 18:04:05.263
"2/8/2020 18:04:05.275",0.336,1.258,0.199,2020-02-08 18:04:05.275
"2/8/2020 18:04:05.288",0.398,1.695,0.266,2020-02-08 18:04:05.288
"2/8/2020 18:04:05.300",0.293,1.547,0.195,2020-02-08 18:04:05.299
"2/8/2020 18:04:05.313",0.016,1.117,0.039,2020-02-08 18:04:05.312
"2/8/2020 18:04:05.325",0.125,0.707,-0.039,2020-02-08 18:04:05.325
"2/8/2020 18:04:05.338",0.285,0.617,-0.047,2020-02-08 18:04:05.338
"2/8/2020 18:04:05.350",0.285,0.656,-0.105,2020-02-08 18:04:05.349
"2/8/2020 18:04:05.363",0.152,0.789,-0.188,2020-02-08 18:04:05.362
"2/8/2020 18:04:05.375",0.066,0.895,-0.215,2020-02-08 18:04:05.375
"2/8/2020 18:04:05.388",0.039,0.922,-0.25,2020-02-08 18:04:05.388
"2/8/2020 18:04:05.400",0.102,0.887,-0.254,2020-02-08 18:04:05.400
"2/8/2020 18:04:05.413",0.129,0.914,-0.219,2020-02-08 18:04:05.413
"2/8/2020 18:04:05.425",0.055,1.18,-0.199,2020-02-08 18:04:05.424
"2/8/2020 18:04:05.438",-0.266,1.691,-0.012,2020-02-08 18:04:05.437
"2/8/2020 18:04:05.450",-0.547,2.004,0.488,2020-02-08 18:04:05.450
"2/8/2020 18:04:05.463",-0.23,1.648,0.523,2020-02-08 18:04:05.463
"2/8/2020 18:04:05.475",0.332,1.043,0.164,2020-02-08 18:04:05.474
"2/8/2020 18:04:05.488",0.555,0.781,-0.113,2020-02-08 18:04:05.487
"2/8/2020 18:04:05.500",0.402,0.809,-0.27,2020-02-08 18:04:05.500
"2/8/2020 18:04:05.513",0.121,0.863,-0.191,2020-02-08 18:04:05.513
"2/8/2020 18:04:05.525",0.184,0.922,-0.027,2020-02-08 18:04:05.525
"2/8/2020 18:04:05.538",0.422,0.957,0.023,2020-02-08 18:04:05.538
"2/8/2020 18:04:05.550",0.547,1.02,-0.004,2020-02-08 18:04:05.549
"2/8/2020 18:04:05.563",0.402,1.059,-0.047,2020-02-08 18:04:05.562
"2/8/2020 18:04:05.575",0.184,1.055,-0.109,2020-02-08 18:04:05.575
"2/8/2020 18:04:05.588",0.109,1.039,-0.148,2020-02-08 18:04:05.588
"2/8/2020 18:04:05.600",0.168,1,-0.137,2020-02-08 18:04:05.599
"2/8/2020 18:04:05.613",0.258,0.949,-0.152,2020-02-08 18:04:05.612
"2/8/2020 18:04:05.625",0.25,0.922,-0.16,2020-02-08 18:04:05.625
"2/8/2020 18:04:05.638",0.211,0.934,-0.191,2020-02-08 18:04:05.638
"2/8/2020 18:04:05.650",0.242,0.973,-0.195,2020-02-08 18:04:05.650
"2/8/2020 18:04:05.663",0.281,0.977,-0.141,2020-02-08 18:04:05.663
"2/8/2020 18:04:05.675",0.258,0.965,-0.09,2020-02-08 18:04:05.674
"2/8/2020 18:04:05.688",0.238,0.98,-0.066,2020-02-08 18:04:05.687
"2/8/2020 18:04:05.700",0.242,1,-0.051,2020-02-08 18:04:05.700
"2/8/2020 18:04:05.713",0.242,0.988,-0.055,2020-02-08 18:04:05.713
"2/8/2020 18:04:05.725",0.242,0.98,-0.066,2020-02-08 18:04:05.724
"2/8/2020 18:04:05.738",0.234,0.965,-0.102,2020-02-08 18:04:05.737
"2/8/2020 18:04:05.750",0.23,0.961,-0.145,2020-02-08 18:04:05.750
"2/8/2020 18:04:05.763",0.227,0.965,-0.176,2020-02-08 18:04:05.763
"2/8/2020 18:04:05.775",0.18,0.965,-0.195,2020-02-08 18:04:05.775
"2/8/2020 18:04:05.788",0.121,0.977,-0.176,2020-02-08 18:04:05.788
"2/8/2020 18:04:05.800",0.113,0.996,-0.16,2020-02-08 18:04:05.799
"2/8/2020 18:04:05.813",0.266,1.035,-0.156,2020-02-08 18:04:05.812
"2/8/2020 18:04:05.825",0.305,0.949,-0.137,2020-02-08 18:04:05.825
"2/8/2020 18:04:05.838",0.156,0.941,-0.137,2020-02-08 18:04:05.838
"2/8/2020 18:04:05.850",0.078,1,-0.188,2020-02-08 18:04:05.849
"2/8/2020 18:04:05.863",0.098,0.988,-0.18,2020-02-08 18:04:05.862
"2/8/2020 18:04:05.875",0.109,0.953,-0.172,2020-02-08 18:04:05.875
"2/8/2020 18:04:05.888",0.105,0.965,-0.195,2020-02-08 18:04:05.888
"2/8/2020 18:04:05.900",0.074,0.957,-0.199,2020-02-08 18:04:05.900
"2/8/2020 18:04:05.913",0.004,0.93,-0.176,2020-02-08 18:04:05.913
"2/8/2020 18:04:05.925",-0.078,0.953,-0.152,2020-02-08 18:04:05.924
"2/8/2020 18:04:05.938",-0.094,0.953,-0.133,2020-02-08 18:04:05.937
"2/8/2020 18:04:05.950",-0.086,0.945,-0.102,2020-02-08 18:04:05.950
"2/8/2020 18:04:05.963",-0.082,0.945,-0.098,2020-02-08 18:04:05.963
"2/8/2020 18:04:05.975",-0.059,0.945,-0.113,2020-02-08 18:04:05.974
"2/8/2020 18:04:05.988",-0.086,0.938,-0.117,2020-02-08 18:04:05.987
"2/8/2020 18:04:06.000",-0.125,0.934,-0.117,2020-02-08 18:04:06.000
"2/8/2020 18:04:06.013",-0.16,0.941,-0.07,2020-02-08 18:04:06.013
"2/8/2020 18:04:06.025",-0.164,0.945,-0.043,2020-02-08 18:04:06.025
"2/8/2020 18:04:06.038",-0.129,0.957,-0.047,2020-02-08 18:04:06.038
"2/8/2020 18:04:06.050",-0.09,0.965,-0.082,2020-02-08 18:04:06.049
"2/8/2020 18:04:06.063",-0.07,0.961,-0.098,2020-02-08 18:04:06.062
"2/8/2020 18:04:06.075",-0.09,0.957,-0.094,2020-02-08 18:04:06.075
"2/8/2020 18:04:06.088",-0.109,0.961,-0.109,2020-02-08 18:04:06.088
"2/8/2020 18:04:06.100",-0.125,0.953,-0.109,2020-02-08 18:04:06.099
"2/8/2020 18:04:06.113",-0.145,0.949,-0.113,2020-02-08 18:04:06.112
"2/8/2020 18:04:06.125",-0.129,0.953,-0.129,2020-02-08 18:04:06.125
"2/8/2020 18:04:06.138",-0.113,0.973,-0.145,2020-02-08 18:04:06.138
"2/8/2020 18:04:06.150",-0.109,0.961,-0.18,2020-02-08 18:04:06.150
"2/8/2020 18:04:06.163",-0.16,0.938,-0.188,2020-02-08 18:04:06.163
"2/8/2020 18:04:06.175",-0.219,0.93,-0.176,2020-02-08 18:04:06.174
"2/8/2020 18:04:06.188",-0.258,0.926,-0.164,2020-02-08 18:04:06.187
"2/8/2020 18:04:06.200",-0.262,0.922,-0.168,2020-02-08 18:04:06.200
"2/8/2020 18:04:06.213",-0.262,0.918,-0.18,2020-02-08 18:04:06.213
"2/8/2020 18:04:06.225",-0.266,0.918,-0.188,2020-02-08 18:04:06.224
"2/8/2020 18:04:06.238",-0.262,0.93,-0.195,2020-02-08 18:04:06.237
"2/8/2020 18:04:06.250",-0.254,0.914,-0.211,2020-02-08 18:04:06.250
"2/8/2020 18:04:06.263",-0.242,0.906,-0.23,2020-02-08 18:04:06.263
"2/8/2020 18:04:06.275",-0.242,0.926,-0.242,2020-02-08 18:04:06.275
"2/8/2020 18:04:06.288",-0.203,0.957,-0.211,2020-02-08 18:04:06.288
"2/8/2020 18:04:06.300",-0.133,0.938,-0.184,2020-02-08 18:04:06.299
"2/8/2020 18:04:06.313",-0.051,0.859,-0.184,2020-02-08 18:04:06.312
"2/8/2020 18:04:06.325",-0.004,0.887,-0.141,2020-02-08 18:04:06.325
"2/8/2020 18:04:06.338",-0.023,0.891,-0.031,2020-02-08 18:04:06.338
"2/8/2020 18:04:06.350",-0.012,0.883,0.047,2020-02-08 18:04:06.349
"2/8/2020 18:04:06.363",0.02,0.938,0.035,2020-02-08 18:04:06.362
"2/8/2020 18:04:06.375",-0.016,0.988,-0.043,2020-02-08 18:04:06.375
"2/8/2020 18:04:06.388",-0.141,0.973,-0.094,2020-02-08 18:04:06.388
"2/8/2020 18:04:06.400",-0.25,0.949,-0.09,2020-02-08 18:04:06.400
"2/8/2020 18:04:06.413",-0.188,0.949,-0.109,2020-02-08 18:04:06.413
"2/8/2020 18:04:06.425",-0.055,0.957,-0.172,2020-02-08 18:04:06.424
"2/8/2020 18:04:06.438",0.043,0.961,-0.219,2020-02-08 18:04:06.437
"2/8/2020 18:04:06.450",0.16,0.957,-0.289,2020-02-08 18:04:06.450
"2/8/2020 18:04:06.463",0.313,0.961,-0.281,2020-02-08 18:04:06.463
"2/8/2020 18:04:06.475",0.422,0.988,-0.191,2020-02-08 18:04:06.474
"2/8/2020 18:04:06.488",0.316,0.988,-0.117,2020-02-08 18:04:06.487
"2/8/2020 18:04:06.500",0.152,1,-0.094,2020-02-08 18:04:06.500
"2/8/2020 18:04:06.513",0.168,0.988,-0.066,2020-02-08 18:04:06.513
"2/8/2020 18:04:06.525",0.195,0.992,-0.023,2020-02-08 18:04:06.525
"2/8/2020 18:04:06.538",0.207,0.996,-0.027,2020-02-08 18:04:06.538
"2/8/2020 18:04:06.550",0.215,0.996,-0.039,2020-02-08 18:04:06.549
"2/8/2020 18:04:06.563",0.215,0.988,-0.07,2020-02-08 18:04:06.562
"2/8/2020 18:04:06.575",0.215,0.98,-0.125,2020-02-08 18:04:06.575
"2/8/2020 18:04:06.588",0.234,0.969,-0.152,2020-02-08 18:04:06.588
"2/8/2020 18:04:06.600",0.262,0.977,-0.164,2020-02-08 18:04:06.599
"2/8/2020 18:04:06.613",0.297,0.977,-0.176,2020-02-08 18:04:06.612
"2/8/2020 18:04:06.625",0.316,0.965,-0.184,2020-02-08 18:04:06.625
"2/8/2020 18:04:06.638",0.309,0.969,-0.195,2020-02-08 18:04:06.638
"2/8/2020 18:04:06.650",0.309,0.98,-0.211,2020-02-08 18:04:06.650
"2/8/2020 18:04:06.663",0.301,0.973,-0.184,2020-02-08 18:04:06.663
"2/8/2020 18:04:06.675",0.316,0.977,-0.156,2020-02-08 18:04:06.674
"2/8/2020 18:04:06.688",0.32,0.984,-0.176,2020-02-08 18:04:06.687
"2/8/2020 18:04:06.700",0.309,0.969,-0.227,2020-02-08 18:04:06.700
"2/8/2020 18:04:06.713",0.305,0.965,-0.246,2020-02-08 18:04:06.713
"2/8/2020 18:04:06.725",0.289,0.957,-0.246,2020-02-08 18:04:06.724
"2/8/2020 18:04:06.738",0.266,0.953,-0.227,2020-02-08 18:04:06.737
"2/8/2020 18:04:06.750",0.254,0.957,-0.203,2020-02-08 18:04:06.750
"2/8/2020 18:04:06.763",0.25,0.965,-0.199,2020-02-08 18:04:06.763
"2/8/2020 18:04:06.775",0.238,0.969,-0.199,2020-02-08 18:04:06.775
"2/8/2020 18:04:06.788",0.223,0.961,-0.199,2020-02-08 18:04:06.788
"2/8/2020 18:04:06.800",0.207,0.949,-0.176,2020-02-08 18:04:06.799
"2/8/2020 18:04:06.813",0.195,0.953,-0.156,2020-02-08 18:04:06.812
"2/8/2020 18:04:06.825",0.184,0.969,-0.145,2020-02-08 18:04:06.825
"2/8/2020 18:04:06.838",0.199,0.969,-0.16,2020-02-08 18:04:06.838
"2/8/2020 18:04:06.850",0.211,0.973,-0.148,2020-02-08 18:04:06.849
"2/8/2020 18:04:06.863",0.188,0.98,-0.141,2020-02-08 18:04:06.862
"2/8/2020 18:04:06.875",0.141,0.977,-0.137,2020-02-08 18:04:06.875
"2/8/2020 18:04:06.888",0.086,0.941,-0.137,2020-02-08 18:04:06.888
"2/8/2020 18:04:06.900",0.055,0.914,-0.141,2020-02-08 18:04:06.900
"2/8/2020 18:04:06.913",0.039,0.906,-0.145,2020-02-08 18:04:06.913
"2/8/2020 18:04:06.925",0.051,0.91,-0.141,2020-02-08 18:04:06.924
"2/8/2020 18:04:06.938",0.141,0.914,-0.148,2020-02-08 18:04:06.937
"2/8/2020 18:04:06.950",0.227,0.914,-0.133,2020-02-08 18:04:06.950
"2/8/2020 18:04:06.963",0.242,0.914,-0.098,2020-02-08 18:04:06.963
"2/8/2020 18:04:06.975",0.215,0.93,-0.023,2020-02-08 18:04:06.974
"2/8/2020 18:04:06.988",0.23,1.094,-0.012,2020-02-08 18:04:06.987
"2/8/2020 18:04:07.000",0.254,1.16,-0.082,2020-02-08 18:04:07.000
"2/8/2020 18:04:07.013",0.246,1.059,-0.082,2020-02-08 18:04:07.013
"2/8/2020 18:04:07.025",0.137,1.238,-0.109,2020-02-08 18:04:07.025
"2/8/2020 18:04:07.038",0.102,1.453,-0.082,2020-02-08 18:04:07.038
"2/8/2020 18:04:07.050",0.027,1.484,-0.027,2020-02-08 18:04:07.049
"2/8/2020 18:04:07.063",-0.023,1.484,0.078,2020-02-08 18:04:07.062
"2/8/2020 18:04:07.075",0.004,1.605,0.199,2020-02-08 18:04:07.075
"2/8/2020 18:04:07.088",0.098,1.699,0.293,2020-02-08 18:04:07.088
"2/8/2020 18:04:07.100",0.074,1.676,0.336,2020-02-08 18:04:07.099
"2/8/2020 18:04:07.113",-0.043,1.609,0.359,2020-02-08 18:04:07.112
"2/8/2020 18:04:07.125",-0.098,1.559,0.336,2020-02-08 18:04:07.125
"2/8/2020 18:04:07.138",-0.07,1.492,0.27,2020-02-08 18:04:07.138
"2/8/2020 18:04:07.150",0.098,1.313,0.113,2020-02-08 18:04:07.150
"2/8/2020 18:04:07.163",0.375,1.105,0,2020-02-08 18:04:07.163
"2/8/2020 18:04:07.175",0.645,1.051,0.004,2020-02-08 18:04:07.174
"2/8/2020 18:04:07.188",0.66,1.117,0.031,2020-02-08 18:04:07.187
"2/8/2020 18:04:07.200",0.422,1.07,0.004,2020-02-08 18:04:07.200
"2/8/2020 18:04:07.213",0.059,0.828,-0.02,2020-02-08 18:04:07.213
"2/8/2020 18:04:07.225",-0.113,0.594,0.07,2020-02-08 18:04:07.224
"2/8/2020 18:04:07.238",-0.113,0.488,0.113,2020-02-08 18:04:07.237
"2/8/2020 18:04:07.250",-0.043,0.422,0.094,2020-02-08 18:04:07.250
"2/8/2020 18:04:07.263",0.023,0.355,0.094,2020-02-08 18:04:07.263
"2/8/2020 18:04:07.275",0.063,0.309,0.098,2020-02-08 18:04:07.275
"2/8/2020 18:04:07.288",0.086,0.289,0.082,2020-02-08 18:04:07.288
"2/8/2020 18:04:07.300",0.07,0.25,0.074,2020-02-08 18:04:07.299
"2/8/2020 18:04:07.313",0.043,0.238,0.086,2020-02-08 18:04:07.312
"2/8/2020 18:04:07.325",0.047,0.242,0.105,2020-02-08 18:04:07.325
"2/8/2020 18:04:07.338",0.035,0.258,0.133,2020-02-08 18:04:07.338
"2/8/2020 18:04:07.350",0.031,0.273,0.156,2020-02-08 18:04:07.349
"2/8/2020 18:04:07.363",0.043,0.281,0.145,2020-02-08 18:04:07.362
"2/8/2020 18:04:07.375",0.074,0.262,0.137,2020-02-08 18:04:07.375
"2/8/2020 18:04:07.388",0.07,0.258,0.113,2020-02-08 18:04:07.388
"2/8/2020 18:04:07.400",0.027,0.301,0.082,2020-02-08 18:04:07.400
"2/8/2020 18:04:07.413",0.027,0.395,0.035,2020-02-08 18:04:07.413
"2/8/2020 18:04:07.425",0.086,0.555,0.004,2020-02-08 18:04:07.424
"2/8/2020 18:04:07.438",0.199,0.824,0.02,2020-02-08 18:04:07.437
"2/8/2020 18:04:07.450",0.352,1.184,-0.07,2020-02-08 18:04:07.450
"2/8/2020 18:04:07.463",2.418,1.664,-2.016,2020-02-08 18:04:07.463
"2/8/2020 18:04:07.475",-0.426,0.598,-1.215,2020-02-08 18:04:07.474
"2/8/2020 18:04:07.488",-2.316,-1.121,-0.168,2020-02-08 18:04:07.487
"2/8/2020 18:04:07.500",-2.992,-2.086,0.531,2020-02-08 18:04:07.500
"2/8/2020 18:04:07.513",-1.695,-0.863,0.254,2020-02-08 18:04:07.513
"2/8/2020 18:04:07.525",0.273,0.477,0.199,2020-02-08 18:04:07.525
"2/8/2020 18:04:07.538",1.699,1.375,-0.184,2020-02-08 18:04:07.538
"2/8/2020 18:04:07.550",1.371,1.957,0.27,2020-02-08 18:04:07.549
"2/8/2020 18:04:07.563",0.324,1.746,0.445,2020-02-08 18:04:07.562
"2/8/2020 18:04:07.575",0.316,1.371,0.227,2020-02-08 18:04:07.575
"2/8/2020 18:04:07.588",0.168,0.73,-0.063,2020-02-08 18:04:07.588
"2/8/2020 18:04:07.600",0.117,0.531,-0.137,2020-02-08 18:04:07.599
"2/8/2020 18:04:07.613",0.063,0.645,-0.238,2020-02-08 18:04:07.612
"2/8/2020 18:04:07.625",0.102,0.863,-0.207,2020-02-08 18:04:07.625
"2/8/2020 18:04:07.638",0.223,1.023,-0.168,2020-02-08 18:04:07.638
"2/8/2020 18:04:07.650",0.289,1.074,-0.184,2020-02-08 18:04:07.650
"2/8/2020 18:04:07.663",0.461,1,-0.195,2020-02-08 18:04:07.663
"2/8/2020 18:04:07.675",0.676,0.895,-0.273,2020-02-08 18:04:07.674
"2/8/2020 18:04:07.688",0.73,0.895,-0.305,2020-02-08 18:04:07.687
"2/8/2020 18:04:07.700",0.723,0.922,-0.234,2020-02-08 18:04:07.700
"2/8/2020 18:04:07.713",0.695,0.996,-0.172,2020-02-08 18:04:07.713
"2/8/2020 18:04:07.725",0.645,1.055,-0.137,2020-02-08 18:04:07.724
"2/8/2020 18:04:07.738",0.695,1.09,-0.113,2020-02-08 18:04:07.737
"2/8/2020 18:04:07.750",0.73,1.121,-0.078,2020-02-08 18:04:07.750
"2/8/2020 18:04:07.763",0.781,1.188,-0.016,2020-02-08 18:04:07.763
"2/8/2020 18:04:07.775",0.746,1.285,0.055,2020-02-08 18:04:07.775
"2/8/2020 18:04:07.788",0.605,1.465,0.094,2020-02-08 18:04:07.788
"2/8/2020 18:04:07.800",0.27,1.801,0.121,2020-02-08 18:04:07.799
"2/8/2020 18:04:07.813",-0.281,2.426,0.156,2020-02-08 18:04:07.812
"2/8/2020 18:04:07.825",-0.742,2.734,0.383,2020-02-08 18:04:07.825
"2/8/2020 18:04:07.838",-1.348,2.227,0.465,2020-02-08 18:04:07.838
"2/8/2020 18:04:07.850",-1.727,1.566,0.43,2020-02-08 18:04:07.849
"2/8/2020 18:04:07.863",-1.43,1.043,0.336,2020-02-08 18:04:07.862
"2/8/2020 18:04:07.875",0.258,0.711,0.078,2020-02-08 18:04:07.875
"2/8/2020 18:04:07.888",2.813,0.914,-0.57,2020-02-08 18:04:07.888
"2/8/2020 18:04:07.900",3.371,1.637,-0.512,2020-02-08 18:04:07.900
"2/8/2020 18:04:07.913",2.563,2.039,-0.391,2020-02-08 18:04:07.913
"2/8/2020 18:04:07.925",1.559,2.48,-0.395,2020-02-08 18:04:07.924
"2/8/2020 18:04:07.938",1,2.723,-0.219,2020-02-08 18:04:07.937
"2/8/2020 18:04:07.950",0.59,2.375,0.031,2020-02-08 18:04:07.950
"2/8/2020 18:04:07.963",0.391,1.922,0.063,2020-02-08 18:04:07.963
"2/8/2020 18:04:07.975",0.133,1.582,0.102,2020-02-08 18:04:07.974
"2/8/2020 18:04:07.988",-0.09,1.379,0.227,2020-02-08 18:04:07.987
"2/8/2020 18:04:08.000",-0.516,1.133,0.328,2020-02-08 18:04:08.000
"2/8/2020 18:04:08.013",-1.133,0.766,0.34,2020-02-08 18:04:08.013
"2/8/2020 18:04:08.025",-1.355,0.391,0.301,2020-02-08 18:04:08.025
"2/8/2020 18:04:08.038",-1.289,0.184,0.277,2020-02-08 18:04:08.038
"2/8/2020 18:04:08.050",-1.379,0.066,0.258,2020-02-08 18:04:08.049
"2/8/2020 18:04:08.063",-1.574,0.039,0.215,2020-02-08 18:04:08.062
"2/8/2020 18:04:08.075",-1.836,-0.203,0.145,2020-02-08 18:04:08.075
"2/8/2020 18:04:08.088",-1.918,-0.465,0.031,2020-02-08 18:04:08.088
"2/8/2020 18:04:08.100",-1.836,-0.766,-0.113,2020-02-08 18:04:08.099
"2/8/2020 18:04:08.113",-1.609,-0.895,-0.191,2020-02-08 18:04:08.112
"2/8/2020 18:04:08.125",-1.461,-0.902,-0.27,2020-02-08 18:04:08.125
"2/8/2020 18:04:08.138",-1.273,-0.773,-0.434,2020-02-08 18:04:08.138
"2/8/2020 18:04:08.150",-0.941,-0.652,-0.566,2020-02-08 18:04:08.150
"2/8/2020 18:04:08.163",-0.629,-0.516,-0.527,2020-02-08 18:04:08.163
"2/8/2020 18:04:08.175",-0.273,-0.227,-0.387,2020-02-08 18:04:08.174
"2/8/2020 18:04:08.188",0.113,0.129,-0.227,2020-02-08 18:04:08.187
"2/8/2020 18:04:08.200",0.402,0.516,-0.152,2020-02-08 18:04:08.200
"2/8/2020 18:04:08.213",0.566,0.832,-0.145,2020-02-08 18:04:08.213
"2/8/2020 18:04:08.225",0.754,1.035,-0.082,2020-02-08 18:04:08.224
"2/8/2020 18:04:08.238",1.039,1.258,0.023,2020-02-08 18:04:08.237
"2/8/2020 18:04:08.250",1.164,1.504,0.008,2020-02-08 18:04:08.250
"2/8/2020 18:04:08.263",1.223,1.891,0.02,2020-02-08 18:04:08.263
"2/8/2020 18:04:08.275",1.035,2.316,0.082,2020-02-08 18:04:08.275
"2/8/2020 18:04:08.288",0.887,2.703,0.188,2020-02-08 18:04:08.288
"2/8/2020 18:04:08.300",2.191,3.133,-1.449,2020-02-08 18:04:08.299
"2/8/2020 18:04:08.313",3.563,3.496,-1.48,2020-02-08 18:04:08.312
"2/8/2020 18:04:08.325",-3.148,3.047,0.813,2020-02-08 18:04:08.325
"2/8/2020 18:04:08.338",-4.691,-0.535,-0.449,2020-02-08 18:04:08.338
"2/8/2020 18:04:08.350",-0.688,-1.461,-0.27,2020-02-08 18:04:08.349
"2/8/2020 18:04:08.363",1.762,0.094,0.25,2020-02-08 18:04:08.362
"2/8/2020 18:04:08.375",2.238,1.145,0.027,2020-02-08 18:04:08.375
"2/8/2020 18:04:08.388",1.059,1.496,-0.695,2020-02-08 18:04:08.388
"2/8/2020 18:04:08.400",0.059,1.488,-0.328,2020-02-08 18:04:08.400
"2/8/2020 18:04:08.413",-0.547,1.125,0.059,2020-02-08 18:04:08.413
"2/8/2020 18:04:08.425",-0.48,0.902,0.238,2020-02-08 18:04:08.424
"2/8/2020 18:04:08.438",-0.289,0.832,0.102,2020-02-08 18:04:08.437
"2/8/2020 18:04:08.450",-0.125,0.973,0.043,2020-02-08 18:04:08.450
"2/8/2020 18:04:08.463",0.148,1.117,0.035,2020-02-08 18:04:08.463
"2/8/2020 18:04:08.475",0.309,1.07,-0.078,2020-02-08 18:04:08.474
"2/8/2020 18:04:08.488",0.234,0.977,-0.148,2020-02-08 18:04:08.487
"2/8/2020 18:04:08.500",0.211,0.898,-0.125,2020-02-08 18:04:08.500
"2/8/2020 18:04:08.513",0.113,0.797,0.004,2020-02-08 18:04:08.513
"2/8/2020 18:04:08.525",-0.043,0.781,0.129,2020-02-08 18:04:08.525
"2/8/2020 18:04:08.538",-0.164,0.934,0.066,2020-02-08 18:04:08.538
"2/8/2020 18:04:08.550",-0.059,1.293,-0.031,2020-02-08 18:04:08.549
"2/8/2020 18:04:08.563",0.117,1.086,-0.176,2020-02-08 18:04:08.562
"2/8/2020 18:04:08.575",0.117,0.898,-0.266,2020-02-08 18:04:08.575
"2/8/2020 18:04:08.588",0.059,0.859,-0.379,2020-02-08 18:04:08.588
"2/8/2020 18:04:08.600",0.031,0.898,-0.297,2020-02-08 18:04:08.599
"2/8/2020 18:04:08.613",0.012,0.941,-0.117,2020-02-08 18:04:08.612
"2/8/2020 18:04:08.625",0.063,1.004,0.031,2020-02-08 18:04:08.625
"2/8/2020 18:04:08.638",0.141,1.051,0.063,2020-02-08 18:04:08.638
"2/8/2020 18:04:08.650",0.23,1.059,0.074,2020-02-08 18:04:08.650
"2/8/2020 18:04:08.663",0.215,1.039,0.09,2020-02-08 18:04:08.663
"2/8/2020 18:04:08.675",0.082,1,0.094,2020-02-08 18:04:08.674
"2/8/2020 18:04:08.688",-0.137,0.98,0.063,2020-02-08 18:04:08.687
"2/8/2020 18:04:08.700",-0.34,0.914,0.008,2020-02-08 18:04:08.700
"2/8/2020 18:04:08.713",-0.309,0.898,0.012,2020-02-08 18:04:08.713
"2/8/2020 18:04:08.725",-0.293,0.918,0.09,2020-02-08 18:04:08.724
"2/8/2020 18:04:08.738",-0.043,1.008,0.066,2020-02-08 18:04:08.737
"2/8/2020 18:04:08.750",0.27,1.035,0.016,2020-02-08 18:04:08.750
"2/8/2020 18:04:08.763",0.398,1.074,0.063,2020-02-08 18:04:08.763
"2/8/2020 18:04:08.775",0.391,1.043,0.09,2020-02-08 18:04:08.775
"2/8/2020 18:04:08.788",0.297,0.965,0.109,2020-02-08 18:04:08.788
"2/8/2020 18:04:08.800",0.242,0.949,0.07,2020-02-08 18:04:08.799
"2/8/2020 18:04:08.813",0.18,0.973,0.023,2020-02-08 18:04:08.812
"2/8/2020 18:04:08.825",0.09,0.992,0.039,2020-02-08 18:04:08.825
"2/8/2020 18:04:08.838",-0.027,1.051,0.059,2020-02-08 18:04:08.838
"2/8/2020 18:04:08.850",-0.07,1.051,0.043,2020-02-08 18:04:08.849
"2/8/2020 18:04:08.863",-0.016,1.027,-0.027,2020-02-08 18:04:08.862
"2/8/2020 18:04:08.875",0.023,1,-0.047,2020-02-08 18:04:08.875
"2/8/2020 18:04:08.888",0.023,1.012,0.008,2020-02-08 18:04:08.888
"2/8/2020 18:04:08.900",0.063,1.039,0.02,2020-02-08 18:04:08.900
"2/8/2020 18:04:08.913",0.156,1.016,-0.086,2020-02-08 18:04:08.913
"2/8/2020 18:04:08.925",0.176,0.98,-0.191,2020-02-08 18:04:08.924
"2/8/2020 18:04:08.938",0.043,0.98,-0.184,2020-02-08 18:04:08.937
"2/8/2020 18:04:08.950",0.02,1.012,-0.223,2020-02-08 18:04:08.950
"2/8/2020 18:04:08.963",0.164,0.984,-0.242,2020-02-08 18:04:08.963
"2/8/2020 18:04:08.975",0.137,0.918,-0.219,2020-02-08 18:04:08.974
"2/8/2020 18:04:08.988",0.215,0.848,-0.176,2020-02-08 18:04:08.987
"2/8/2020 18:04:09.000",0.246,0.809,-0.203,2020-02-08 18:04:09.000
"2/8/2020 18:04:09.013",0.215,0.844,-0.285,2020-02-08 18:04:09.013
"2/8/2020 18:04:09.025",0.184,0.949,-0.34,2020-02-08 18:04:09.025
"2/8/2020 18:04:09.038",0.141,1.012,-0.316,2020-02-08 18:04:09.038
"2/8/2020 18:04:09.050",0.094,0.98,-0.266,2020-02-08 18:04:09.049
"2/8/2020 18:04:09.063",0.09,0.93,-0.242,2020-02-08 18:04:09.062
"2/8/2020 18:04:09.075",0.109,0.914,-0.203,2020-02-08 18:04:09.075
"2/8/2020 18:04:09.088",0.031,0.961,-0.18,2020-02-08 18:04:09.088
"2/8/2020 18:04:09.100",-0.043,1.039,-0.117,2020-02-08 18:04:09.099
"2/8/2020 18:04:09.113",-0.098,1.098,-0.004,2020-02-08 18:04:09.112
"2/8/2020 18:04:09.125",-0.211,1.191,0.113,2020-02-08 18:04:09.125
"2/8/2020 18:04:09.138",-0.219,1.359,0.262,2020-02-08 18:04:09.138
"2/8/2020 18:04:09.150",-0.176,1.52,0.336,2020-02-08 18:04:09.150
"2/8/2020 18:04:09.163",-0.184,1.5,0.359,2020-02-08 18:04:09.163
"2/8/2020 18:04:09.175",-0.148,1.328,0.496,2020-02-08 18:04:09.174
"2/8/2020 18:04:09.188",0.082,1.152,0.789,2020-02-08 18:04:09.187
"2/8/2020 18:04:09.200",0.445,1.02,1.141,2020-02-08 18:04:09.200
"2/8/2020 18:04:09.213",0.672,0.961,1.184,2020-02-08 18:04:09.213
"2/8/2020 18:04:09.225",1.094,0.91,0.824,2020-02-08 18:04:09.224
"2/8/2020 18:04:09.238",1.684,1.105,0.32,2020-02-08 18:04:09.237
"2/8/2020 18:04:09.250",2.23,1.406,-0.465,2020-02-08 18:04:09.250
"2/8/2020 18:04:09.263",2.758,1.691,-0.863,2020-02-08 18:04:09.263
"2/8/2020 18:04:09.275",2.477,1.801,-0.781,2020-02-08 18:04:09.275
"2/8/2020 18:04:09.288",1.508,1.688,-0.738,2020-02-08 18:04:09.288
"2/8/2020 18:04:09.300",0.77,1.383,-0.738,2020-02-08 18:04:09.299
"2/8/2020 18:04:09.313",0.461,1.152,-0.734,2020-02-08 18:04:09.312
"2/8/2020 18:04:09.325",0.441,1.031,-0.648,2020-02-08 18:04:09.325
"2/8/2020 18:04:09.338",0.566,1.031,-0.563,2020-02-08 18:04:09.338
"2/8/2020 18:04:09.350",0.664,1.063,-0.539,2020-02-08 18:04:09.349
"2/8/2020 18:04:09.363",0.742,1.129,-0.539,2020-02-08 18:04:09.362
"2/8/2020 18:04:09.375",0.75,1.18,-0.539,2020-02-08 18:04:09.375
"2/8/2020 18:04:09.388",0.602,1.164,-0.531,2020-02-08 18:04:09.388
"2/8/2020 18:04:09.400",0.418,1.098,-0.551,2020-02-08 18:04:09.400
"2/8/2020 18:04:09.413",0.23,1.059,-0.578,2020-02-08 18:04:09.413
"2/8/2020 18:04:09.425",-0.043,1.039,-0.602,2020-02-08 18:04:09.424
"2/8/2020 18:04:09.438",-0.395,1.008,-0.609,2020-02-08 18:04:09.437
"2/8/2020 18:04:09.450",-0.707,0.949,-0.605,2020-02-08 18:04:09.450
"2/8/2020 18:04:09.463",-0.957,0.836,-0.523,2020-02-08 18:04:09.463
"2/8/2020 18:04:09.475",-1.195,0.754,-0.348,2020-02-08 18:04:09.474
"2/8/2020 18:04:09.488",-1.336,0.688,-0.188,2020-02-08 18:04:09.487
"2/8/2020 18:04:09.500",-1.301,0.648,-0.094,2020-02-08 18:04:09.500
"2/8/2020 18:04:09.513",-1.102,0.637,-0.051,2020-02-08 18:04:09.513
"2/8/2020 18:04:09.525",-0.992,0.648,-0.008,2020-02-08 18:04:09.525
"2/8/2020 18:04:09.538",-0.852,0.602,0.105,2020-02-08 18:04:09.538
"2/8/2020 18:04:09.550",-0.641,0.527,0.188,2020-02-08 18:04:09.549
"2/8/2020 18:04:09.563",-0.516,0.473,0.246,2020-02-08 18:04:09.562
"2/8/2020 18:04:09.575",-0.434,0.445,0.258,2020-02-08 18:04:09.575
"2/8/2020 18:04:09.588",1.512,0.313,-1.699,2020-02-08 18:04:09.588
"2/8/2020 18:04:09.600",4.008,2.258,0.383,2020-02-08 18:04:09.599
"2/8/2020 18:04:09.613",0.02,3.129,1.371,2020-02-08 18:04:09.612
"2/8/2020 18:04:09.625",-1.945,1.102,1.156,2020-02-08 18:04:09.625
"2/8/2020 18:04:09.638",-1.293,0.883,1.18,2020-02-08 18:04:09.638
"2/8/2020 18:04:09.650",0.996,2.094,0.379,2020-02-08 18:04:09.650
"2/8/2020 18:04:09.663",1.504,2.59,0.285,2020-02-08 18:04:09.663
"2/8/2020 18:04:09.675",0.918,2.246,0.633,2020-02-08 18:04:09.674
"2/8/2020 18:04:09.688",0.16,2.52,0.875,2020-02-08 18:04:09.687
"2/8/2020 18:04:09.700",-0.156,1.863,0.469,2020-02-08 18:04:09.700
"2/8/2020 18:04:09.713",0.328,0.98,0.047,2020-02-08 18:04:09.713
"2/8/2020 18:04:09.725",0.52,0.352,0.047,2020-02-08 18:04:09.724
"2/8/2020 18:04:09.738",0.617,0.285,0.277,2020-02-08 18:04:09.737
"2/8/2020 18:04:09.750",0.484,0.551,0.441,2020-02-08 18:04:09.750
"2/8/2020 18:04:09.763",0.434,0.93,0.32,2020-02-08 18:04:09.763
"2/8/2020 18:04:09.775",0.465,1.133,0.055,2020-02-08 18:04:09.775
"2/8/2020 18:04:09.788",0.445,1.117,-0.172,2020-02-08 18:04:09.788
"2/8/2020 18:04:09.800",0.305,0.984,-0.27,2020-02-08 18:04:09.799
"2/8/2020 18:04:09.813",0.23,0.969,-0.223,2020-02-08 18:04:09.812
"2/8/2020 18:04:09.825",0.242,0.926,-0.07,2020-02-08 18:04:09.825
"2/8/2020 18:04:09.838",0.277,0.895,0.02,2020-02-08 18:04:09.838
"2/8/2020 18:04:09.850",0.242,0.895,0.023,2020-02-08 18:04:09.849
"2/8/2020 18:04:09.863",0.223,0.91,-0.016,2020-02-08 18:04:09.862
"2/8/2020 18:04:09.875",0.273,0.93,-0.023,2020-02-08 18:04:09.875
"2/8/2020 18:04:09.888",0.305,0.938,0.008,2020-02-08 18:04:09.888
"2/8/2020 18:04:09.900",0.336,0.953,0.035,2020-02-08 18:04:09.900
"2/8/2020 18:04:09.913",0.348,0.957,0.047,2020-02-08 18:04:09.913
"2/8/2020 18:04:09.925",0.355,0.965,0.039,2020-02-08 18:04:09.924
"2/8/2020 18:04:09.938",0.348,0.977,0.063,2020-02-08 18:04:09.937
"2/8/2020 18:04:09.950",0.34,0.98,0.078,2020-02-08 18:04:09.950
"2/8/2020 18:04:09.963",0.324,0.961,0.086,2020-02-08 18:04:09.963
"2/8/2020 18:04:09.975",0.293,0.945,0.102,2020-02-08 18:04:09.974
"2/8/2020 18:04:09.988",0.289,0.957,0.125,2020-02-08 18:04:09.987
"2/8/2020 18:04:10.000",0.289,0.969,0.129,2020-02-08 18:04:10.000
"2/8/2020 18:04:10.013",0.285,0.977,0.113,2020-02-08 18:04:10.013
"2/8/2020 18:04:10.025",0.305,0.973,0.082,2020-02-08 18:04:10.025
"2/8/2020 18:04:10.038",0.371,0.957,0.102,2020-02-08 18:04:10.038
"2/8/2020 18:04:10.050",0.355,0.941,0.109,2020-02-08 18:04:10.049
"2/8/2020 18:04:10.063",0.281,0.922,0.066,2020-02-08 18:04:10.062
"2/8/2020 18:04:10.075",0.219,0.941,0.02,2020-02-08 18:04:10.075
"2/8/2020 18:04:10.088",0.16,0.961,0.016,2020-02-08 18:04:10.088
"2/8/2020 18:04:10.100",0.152,0.949,0.016,2020-02-08 18:04:10.099
"2/8/2020 18:04:10.113",0.211,0.926,0.082,2020-02-08 18:04:10.112
"2/8/2020 18:04:10.125",0.215,0.926,0.102,2020-02-08 18:04:10.125
"2/8/2020 18:04:10.138",0.227,0.957,0.09,2020-02-08 18:04:10.138
"2/8/2020 18:04:10.150",0.152,1.027,0.012,2020-02-08 18:04:10.150
"2/8/2020 18:04:10.163",0.098,1.02,-0.051,2020-02-08 18:04:10.163
"2/8/2020 18:04:10.175",0.023,1.035,-0.059,2020-02-08 18:04:10.174
"2/8/2020 18:04:10.188",-0.105,1.063,-0.02,2020-02-08 18:04:10.187
"2/8/2020 18:04:10.200",-0.164,1.059,0.098,2020-02-08 18:04:10.200
"2/8/2020 18:04:10.213",-0.145,0.949,0.379,2020-02-08 18:04:10.213
"2/8/2020 18:04:10.225",-0.258,1.105,0.547,2020-02-08 18:04:10.224
"2/8/2020 18:04:10.238",-0.262,1.148,0.574,2020-02-08 18:04:10.237
"2/8/2020 18:04:10.250",-0.223,1.02,0.504,2020-02-08 18:04:10.250
"2/8/2020 18:04:10.263",-0.305,0.883,0.574,2020-02-08 18:04:10.263
"2/8/2020 18:04:10.275",-0.402,1.016,0.949,2020-02-08 18:04:10.275
"2/8/2020 18:04:10.288",-0.289,1.152,1.496,2020-02-08 18:04:10.288
"2/8/2020 18:04:10.300",-0.051,1.098,1.922,2020-02-08 18:04:10.299
"2/8/2020 18:04:10.313",0.445,1.086,1.859,2020-02-08 18:04:10.312
"2/8/2020 18:04:10.325",1.078,1.234,1.406,2020-02-08 18:04:10.325
"2/8/2020 18:04:10.338",1.121,1.195,1.078,2020-02-08 18:04:10.338
"2/8/2020 18:04:10.350",0.805,1.148,0.898,2020-02-08 18:04:10.349
"2/8/2020 18:04:10.363",0.387,1.137,0.777,2020-02-08 18:04:10.362
"2/8/2020 18:04:10.375",0.047,1.125,0.609,2020-02-08 18:04:10.375
"2/8/2020 18:04:10.388",-0.176,1.055,0.418,2020-02-08 18:04:10.388
"2/8/2020 18:04:10.400",-0.281,0.984,0.227,2020-02-08 18:04:10.400
"2/8/2020 18:04:10.413",-0.305,0.934,0.09,2020-02-08 18:04:10.413
"2/8/2020 18:04:10.425",-0.254,0.941,0.02,2020-02-08 18:04:10.424
"2/8/2020 18:04:10.438",-0.227,1.016,-0.055,2020-02-08 18:04:10.437
"2/8/2020 18:04:10.450",-0.195,1.039,-0.129,2020-02-08 18:04:10.450
"2/8/2020 18:04:10.463",-0.16,1.059,-0.184,2020-02-08 18:04:10.463
"2/8/2020 18:04:10.475",-0.07,1.066,-0.219,2020-02-08 18:04:10.474
"2/8/2020 18:04:10.488",0.074,1.047,-0.242,2020-02-08 18:04:10.487
"2/8/2020 18:04:10.500",0.16,1.02,-0.289,2020-02-08 18:04:10.500
"2/8/2020 18:04:10.513",0.199,1.023,-0.352,2020-02-08 18:04:10.513
"2/8/2020 18:04:10.525",0.227,1.043,-0.453,2020-02-08 18:04:10.525
"2/8/2020 18:04:10.538",0.242,1.078,-0.488,2020-02-08 18:04:10.538
"2/8/2020 18:04:10.550",0.273,1.125,-0.578,2020-02-08 18:04:10.549
"2/8/2020 18:04:10.563",0.336,1.164,-0.629,2020-02-08 18:04:10.562
"2/8/2020 18:04:10.575",0.453,1.172,-0.723,2020-02-08 18:04:10.575
"2/8/2020 18:04:10.588",0.668,1.074,-0.789,2020-02-08 18:04:10.588
"2/8/2020 18:04:10.600",0.773,0.957,-0.715,2020-02-08 18:04:10.599
"2/8/2020 18:04:10.613",0.727,0.891,-0.664,2020-02-08 18:04:10.612
"2/8/2020 18:04:10.625",0.805,0.879,-0.598,2020-02-08 18:04:10.625
"2/8/2020 18:04:10.638",0.035,1.051,-0.504,2020-02-08 18:04:10.638
"2/8/2020 18:04:10.650",-1.957,0.664,-0.723,2020-02-08 18:04:10.650
"2/8/2020 18:04:10.663",-2.828,0.469,-0.355,2020-02-08 18:04:10.663
"2/8/2020 18:04:10.675",-2.59,0.66,-0.27,2020-02-08 18:04:10.674
"2/8/2020 18:04:10.688",-1.566,0.875,0.098,2020-02-08 18:04:10.687
"2/8/2020 18:04:10.700",-0.273,1.156,0.406,2020-02-08 18:04:10.700
"2/8/2020 18:04:10.713",0.844,1.355,0.57,2020-02-08 18:04:10.713
"2/8/2020 18:04:10.725",0.473,1.215,0.465,2020-02-08 18:04:10.724
"2/8/2020 18:04:10.738",-0.492,0.836,0.164,2020-02-08 18:04:10.737
"2/8/2020 18:04:10.750",-0.926,0.762,-0.035,2020-02-08 18:04:10.750
"2/8/2020 18:04:10.763",-0.844,1.023,-0.129,2020-02-08 18:04:10.763
"2/8/2020 18:04:10.775",-0.891,1.207,-0.297,2020-02-08 18:04:10.775
"2/8/2020 18:04:10.788",-0.984,1.141,-0.523,2020-02-08 18:04:10.788
"2/8/2020 18:04:10.800",-0.957,1.094,-0.727,2020-02-08 18:04:10.799
"2/8/2020 18:04:10.813",-0.887,1.18,-0.863,2020-02-08 18:04:10.812
"2/8/2020 18:04:10.825",-0.781,1.297,-0.875,2020-02-08 18:04:10.825
"2/8/2020 18:04:10.838",-0.492,1.359,-0.758,2020-02-08 18:04:10.838
"2/8/2020 18:04:10.850",0.078,1.445,-0.57,2020-02-08 18:04:10.849
"2/8/2020 18:04:10.863",0.535,1.602,-0.469,2020-02-08 18:04:10.862
"2/8/2020 18:04:10.875",0.777,1.781,-0.469,2020-02-08 18:04:10.875
"2/8/2020 18:04:10.888",0.586,1.695,-0.621,2020-02-08 18:04:10.888
"2/8/2020 18:04:10.900",0.242,1.34,-0.723,2020-02-08 18:04:10.900
"2/8/2020 18:04:10.913",-0.164,0.91,-0.672,2020-02-08 18:04:10.913
"2/8/2020 18:04:10.925",-0.488,0.531,-0.492,2020-02-08 18:04:10.924
"2/8/2020 18:04:10.938",-0.637,0.363,-0.254,2020-02-08 18:04:10.937
"2/8/2020 18:04:10.950",-0.617,0.359,-0.117,2020-02-08 18:04:10.950
"2/8/2020 18:04:10.963",-0.457,0.508,-0.039,2020-02-08 18:04:10.963
"2/8/2020 18:04:10.975",-0.262,0.703,-0.008,2020-02-08 18:04:10.974
"2/8/2020 18:04:10.988",-0.039,0.895,0.055,2020-02-08 18:04:10.987
"2/8/2020 18:04:11.000",0.148,1.047,0.145,2020-02-08 18:04:11.000
"2/8/2020 18:04:11.013",0.328,1.148,0.25,2020-02-08 18:04:11.013
"2/8/2020 18:04:11.025",0.434,1.234,0.391,2020-02-08 18:04:11.025
"2/8/2020 18:04:11.038",0.488,1.336,0.52,2020-02-08 18:04:11.038
"2/8/2020 18:04:11.050",0.453,1.383,0.48,2020-02-08 18:04:11.049
"2/8/2020 18:04:11.063",0.449,1.402,0.531,2020-02-08 18:04:11.062
"2/8/2020 18:04:11.075",0.43,1.328,0.539,2020-02-08 18:04:11.075
"2/8/2020 18:04:11.088",0.426,1.199,0.461,2020-02-08 18:04:11.088
"2/8/2020 18:04:11.100",0.395,1.121,0.402,2020-02-08 18:04:11.099
"2/8/2020 18:04:11.113",0.32,1.145,0.461,2020-02-08 18:04:11.112
"2/8/2020 18:04:11.125",0.391,1.152,0.566,2020-02-08 18:04:11.125
"2/8/2020 18:04:11.138",0.488,1.125,0.668,2020-02-08 18:04:11.138
"2/8/2020 18:04:11.150",0.566,1.078,0.762,2020-02-08 18:04:11.150
"2/8/2020 18:04:11.163",0.582,1.051,0.887,2020-02-08 18:04:11.163
"2/8/2020 18:04:11.175",0.508,1.043,0.961,2020-02-08 18:04:11.174
"2/8/2020 18:04:11.188",0.426,1.035,0.93,2020-02-08 18:04:11.187
"2/8/2020 18:04:11.200",0.387,1.012,0.828,2020-02-08 18:04:11.200
"2/8/2020 18:04:11.213",0.57,1,0.758,2020-02-08 18:04:11.213
"2/8/2020 18:04:11.225",-0.23,1.102,1.18,2020-02-08 18:04:11.224
"2/8/2020 18:04:11.238",-1.711,0.906,0.789,2020-02-08 18:04:11.237
"2/8/2020 18:04:11.250",-1.891,0.801,0.281,2020-02-08 18:04:11.250
"2/8/2020 18:04:11.263",-0.715,1.305,-0.078,2020-02-08 18:04:11.263
"2/8/2020 18:04:11.275",0.313,1.367,-0.152,2020-02-08 18:04:11.275
"2/8/2020 18:04:11.288",0.707,1.109,-0.109,2020-02-08 18:04:11.288
"2/8/2020 18:04:11.300",0.273,0.848,-0.234,2020-02-08 18:04:11.299
"2/8/2020 18:04:11.313",-0.016,0.676,-0.172,2020-02-08 18:04:11.312
"2/8/2020 18:04:11.325",0.051,0.617,0.012,2020-02-08 18:04:11.325
"2/8/2020 18:04:11.338",0.203,0.836,0.168,2020-02-08 18:04:11.338
"2/8/2020 18:04:11.350",0.246,1.125,0.344,2020-02-08 18:04:11.349
"2/8/2020 18:04:11.363",0.234,1.203,0.527,2020-02-08 18:04:11.362
"2/8/2020 18:04:11.375",0.168,1.105,0.594,2020-02-08 18:04:11.375
"2/8/2020 18:04:11.388",0.105,1.031,0.527,2020-02-08 18:04:11.388
"2/8/2020 18:04:11.400",0.039,0.953,0.395,2020-02-08 18:04:11.400
"2/8/2020 18:04:11.413",-0.02,0.973,0.246,2020-02-08 18:04:11.413
"2/8/2020 18:04:11.425",-0.027,1.039,0.109,2020-02-08 18:04:11.424
"2/8/2020 18:04:11.438",-0.012,1.059,0.055,2020-02-08 18:04:11.437
"2/8/2020 18:04:11.450",0.039,0.988,0.059,2020-02-08 18:04:11.450
"2/8/2020 18:04:11.463",0.051,0.93,0.164,2020-02-08 18:04:11.463
"2/8/2020 18:04:11.475",0.164,0.938,0.191,2020-02-08 18:04:11.474
"2/8/2020 18:04:11.488",0.215,0.969,0.281,2020-02-08 18:04:11.487
"2/8/2020 18:04:11.500",0.191,0.934,0.363,2020-02-08 18:04:11.500
"2/8/2020 18:04:11.513",0.176,0.879,0.582,2020-02-08 18:04:11.513
"2/8/2020 18:04:11.525",0.168,0.895,0.727,2020-02-08 18:04:11.525
"2/8/2020 18:04:11.538",0.168,0.965,0.813,2020-02-08 18:04:11.538
"2/8/2020 18:04:11.550",0.203,1.004,0.746,2020-02-08 18:04:11.549
"2/8/2020 18:04:11.563",0.23,1.02,0.563,2020-02-08 18:04:11.562
"2/8/2020 18:04:11.575",0.102,1,0.336,2020-02-08 18:04:11.575
"2/8/2020 18:04:11.588",-0.094,0.949,0.211,2020-02-08 18:04:11.588
"2/8/2020 18:04:11.600",-0.09,0.906,0.188,2020-02-08 18:04:11.599
"2/8/2020 18:04:11.613",-0.043,0.879,0.211,2020-02-08 18:04:11.612
"2/8/2020 18:04:11.625",0.004,0.844,0.289,2020-02-08 18:04:11.625
"2/8/2020 18:04:11.638",0.078,0.781,0.352,2020-02-08 18:04:11.638
"2/8/2020 18:04:11.650",0.164,0.75,0.324,2020-02-08 18:04:11.650
"2/8/2020 18:04:11.663",0.242,0.789,0.34,2020-02-08 18:04:11.663
"2/8/2020 18:04:11.675",0.203,0.891,0.285,2020-02-08 18:04:11.674
"2/8/2020 18:04:11.688",0.141,1,0.227,2020-02-08 18:04:11.687
"2/8/2020 18:04:11.700",0.023,1.074,0.23,2020-02-08 18:04:11.700
"2/8/2020 18:04:11.713",-0.094,1.078,0.254,2020-02-08 18:04:11.713
"2/8/2020 18:04:11.725",-0.078,1.055,0.293,2020-02-08 18:04:11.724
"2/8/2020 18:04:11.738",-0.141,1.039,0.328,2020-02-08 18:04:11.737
"2/8/2020 18:04:11.750",-0.191,1.066,0.293,2020-02-08 18:04:11.750
"2/8/2020 18:04:11.763",-0.191,1.094,0.102,2020-02-08 18:04:11.763
"2/8/2020 18:04:11.775",-0.145,1.094,-0.086,2020-02-08 18:04:11.775
"2/8/2020 18:04:11.788",-0.152,1.094,-0.262,2020-02-08 18:04:11.788
"2/8/2020 18:04:11.800",-0.105,1.145,-0.449,2020-02-08 18:04:11.799
"2/8/2020 18:04:11.813",-0.094,1.219,-0.668,2020-02-08 18:04:11.812
"2/8/2020 18:04:11.825",-0.352,1.332,-0.895,2020-02-08 18:04:11.825
"2/8/2020 18:04:11.838",-1.027,1.09,-0.832,2020-02-08 18:04:11.838
"2/8/2020 18:04:11.850",-1.613,0.906,-0.371,2020-02-08 18:04:11.849
"2/8/2020 18:04:11.863",-1.77,0.781,0.344,2020-02-08 18:04:11.862
"2/8/2020 18:04:11.875",-1.301,0.797,0.914,2020-02-08 18:04:11.875
"2/8/2020 18:04:11.888",-0.461,0.746,1.031,2020-02-08 18:04:11.888
"2/8/2020 18:04:11.900",0.398,0.906,0.875,2020-02-08 18:04:11.900
"2/8/2020 18:04:11.913",0.996,1.105,0.688,2020-02-08 18:04:11.913
"2/8/2020 18:04:11.925",1.105,1.117,0.402,2020-02-08 18:04:11.924
"2/8/2020 18:04:11.938",-0.055,1.215,0.004,2020-02-08 18:04:11.937
"2/8/2020 18:04:11.950",-1.574,0.523,-0.031,2020-02-08 18:04:11.950
"2/8/2020 18:04:11.963",-1.551,0.035,0.813,2020-02-08 18:04:11.963
"2/8/2020 18:04:11.975",-0.688,0.293,1.652,2020-02-08 18:04:11.974
"2/8/2020 18:04:11.988",0.676,0.961,2.316,2020-02-08 18:04:11.987
"2/8/2020 18:04:12.000",1.559,1.293,2.84,2020-02-08 18:04:12.000
"2/8/2020 18:04:12.013",1.082,1.105,1.836,2020-02-08 18:04:12.013
"2/8/2020 18:04:12.025",0.855,0.773,0.508,2020-02-08 18:04:12.025
"2/8/2020 18:04:12.038",0.48,1.074,-0.715,2020-02-08 18:04:12.038
"2/8/2020 18:04:12.050",-0.402,1.277,-1.27,2020-02-08 18:04:12.049
"2/8/2020 18:04:12.063",-0.52,1.18,-0.496,2020-02-08 18:04:12.062
"2/8/2020 18:04:12.075",-0.613,1.195,0.52,2020-02-08 18:04:12.075
"2/8/2020 18:04:12.088",-0.344,0.961,0.504,2020-02-08 18:04:12.088
"2/8/2020 18:04:12.100",0,0.797,0.281,2020-02-08 18:04:12.099
"2/8/2020 18:04:12.113",0.266,0.879,0.027,2020-02-08 18:04:12.112
"2/8/2020 18:04:12.125",0.535,1.129,-0.137,2020-02-08 18:04:12.125
"2/8/2020 18:04:12.138",0.523,1.145,-0.125,2020-02-08 18:04:12.138
"2/8/2020 18:04:12.150",0.402,1.023,-0.063,2020-02-08 18:04:12.150
"2/8/2020 18:04:12.163",0.215,0.953,-0.07,2020-02-08 18:04:12.163
"2/8/2020 18:04:12.175",0.004,0.973,-0.25,2020-02-08 18:04:12.174
"2/8/2020 18:04:12.188",-0.211,0.93,-0.434,2020-02-08 18:04:12.187
"2/8/2020 18:04:12.200",-0.227,0.828,-0.406,2020-02-08 18:04:12.200
"2/8/2020 18:04:12.213",-0.141,0.879,-0.25,2020-02-08 18:04:12.213
"2/8/2020 18:04:12.225",-0.051,1.012,-0.211,2020-02-08 18:04:12.224
"2/8/2020 18:04:12.238",0.012,1.012,-0.262,2020-02-08 18:04:12.237
"2/8/2020 18:04:12.250",-0.086,0.91,-0.188,2020-02-08 18:04:12.250
"2/8/2020 18:04:12.263",-0.25,0.949,-0.016,2020-02-08 18:04:12.263
"2/8/2020 18:04:12.275",-0.238,0.992,0.063,2020-02-08 18:04:12.275
"2/8/2020 18:04:12.288",-0.223,0.992,0.043,2020-02-08 18:04:12.288
"2/8/2020 18:04:12.300",-0.234,0.945,-0.07,2020-02-08 18:04:12.299
"2/8/2020 18:04:12.313",-0.258,0.855,-0.008,2020-02-08 18:04:12.312
"2/8/2020 18:04:12.325",-0.246,0.836,0.18,2020-02-08 18:04:12.325
"2/8/2020 18:04:12.338",-0.098,0.902,0.199,2020-02-08 18:04:12.338
"2/8/2020 18:04:12.350",0.063,0.969,0.086,2020-02-08 18:04:12.349
"2/8/2020 18:04:12.363",0.203,1,-0.066,2020-02-08 18:04:12.362
"2/8/2020 18:04:12.375",0.336,1.027,-0.117,2020-02-08 18:04:12.375
"2/8/2020 18:04:12.388",0.414,1.047,-0.184,2020-02-08 18:04:12.388
"2/8/2020 18:04:12.400",0.414,1.066,-0.254,2020-02-08 18:04:12.400
"2/8/2020 18:04:12.413",0.277,1.035,-0.316,2020-02-08 18:04:12.413
"2/8/2020 18:04:12.425",0.168,0.992,-0.262,2020-02-08 18:04:12.424
"2/8/2020 18:04:12.438",-0.023,0.965,-0.102,2020-02-08 18:04:12.437
"2/8/2020 18:04:12.450",-0.234,0.984,0.07,2020-02-08 18:04:12.450
"2/8/2020 18:04:12.463",-0.34,0.969,0.258,2020-02-08 18:04:12.463
"2/8/2020 18:04:12.475",-0.313,1.016,0.367,2020-02-08 18:04:12.474
"2/8/2020 18:04:12.488",-0.203,1.129,0.414,2020-02-08 18:04:12.487
"2/8/2020 18:04:12.500",-0.07,1.152,0.379,2020-02-08 18:04:12.500
"2/8/2020 18:04:12.513",0.02,1.027,0.402,2020-02-08 18:04:12.513
"2/8/2020 18:04:12.525",-0.004,0.965,0.496,2020-02-08 18:04:12.525
"2/8/2020 18:04:12.538",-0.012,0.992,0.652,2020-02-08 18:04:12.538
"2/8/2020 18:04:12.550",0.137,1.008,0.762,2020-02-08 18:04:12.549
"2/8/2020 18:04:12.563",0.41,1.016,0.824,2020-02-08 18:04:12.562
"2/8/2020 18:04:12.575",0.605,1.082,0.832,2020-02-08 18:04:12.575
"2/8/2020 18:04:12.588",0.773,1.105,0.789,2020-02-08 18:04:12.588
"2/8/2020 18:04:12.600",0.891,1.047,0.754,2020-02-08 18:04:12.599
"2/8/2020 18:04:12.613",1.066,0.984,0.762,2020-02-08 18:04:12.612
"2/8/2020 18:04:12.625",1.258,1.023,0.66,2020-02-08 18:04:12.625
"2/8/2020 18:04:12.638",1.402,1.148,0.402,2020-02-08 18:04:12.638
"2/8/2020 18:04:12.650",1.277,1.141,-0.02,2020-02-08 18:04:12.650
"2/8/2020 18:04:12.663",0.848,0.961,-0.578,2020-02-08 18:04:12.663
"2/8/2020 18:04:12.675",0.254,0.707,-0.953,2020-02-08 18:04:12.674
"2/8/2020 18:04:12.688",-0.215,0.586,-1.086,2020-02-08 18:04:12.687
"2/8/2020 18:04:12.700",-0.109,0.723,-1.293,2020-02-08 18:04:12.700
"2/8/2020 18:04:12.713",-0.055,0.977,-1.277,2020-02-08 18:04:12.713
"2/8/2020 18:04:12.725",-0.441,0.977,-0.918,2020-02-08 18:04:12.724
"2/8/2020 18:04:12.738",-0.664,0.777,-0.406,2020-02-08 18:04:12.737
"2/8/2020 18:04:12.750",-0.504,0.793,0.027,2020-02-08 18:04:12.750
"2/8/2020 18:04:12.763",-0.207,1.105,0.141,2020-02-08 18:04:12.763
"2/8/2020 18:04:12.775",0.082,1.406,0.047,2020-02-08 18:04:12.775
"2/8/2020 18:04:12.788",0.203,1.246,0.02,2020-02-08 18:04:12.788
"2/8/2020 18:04:12.800",0.105,1.008,0.016,2020-02-08 18:04:12.799
"2/8/2020 18:04:12.813",-0.203,0.93,-0.039,2020-02-08 18:04:12.812
"2/8/2020 18:04:12.825",-0.414,0.965,-0.031,2020-02-08 18:04:12.825
"2/8/2020 18:04:12.838",-0.465,0.961,-0.094,2020-02-08 18:04:12.838
"2/8/2020 18:04:12.850",-0.41,0.965,-0.207,2020-02-08 18:04:12.849
"2/8/2020 18:04:12.863",-0.266,0.988,-0.258,2020-02-08 18:04:12.862
"2/8/2020 18:04:12.875",-0.18,1.066,-0.191,2020-02-08 18:04:12.875
"2/8/2020 18:04:12.888",-0.219,1.102,-0.074,2020-02-08 18:04:12.888
"2/8/2020 18:04:12.900",-0.277,1.102,0.059,2020-02-08 18:04:12.900
"2/8/2020 18:04:12.913",-0.324,1.113,0.086,2020-02-08 18:04:12.913
"2/8/2020 18:04:12.925",-0.359,1.141,-0.168,2020-02-08 18:04:12.924
"2/8/2020 18:04:12.938",-0.387,1.172,-0.723,2020-02-08 18:04:12.937
"2/8/2020 18:04:12.950",-0.703,1.082,-1.336,2020-02-08 18:04:12.950
"2/8/2020 18:04:12.963",-0.973,0.801,-1.328,2020-02-08 18:04:12.963
"2/8/2020 18:04:12.975",-1.172,0.707,-1.105,2020-02-08 18:04:12.974
"2/8/2020 18:04:12.988",-1.289,0.691,-0.906,2020-02-08 18:04:12.987
"2/8/2020 18:04:13.000",-1.145,0.711,-0.602,2020-02-08 18:04:13.000
"2/8/2020 18:04:13.013",-0.754,0.758,-0.258,2020-02-08 18:04:13.013
"2/8/2020 18:04:13.025",-0.133,0.836,0.07,2020-02-08 18:04:13.025
"2/8/2020 18:04:13.038",0.699,0.98,0.535,2020-02-08 18:04:13.038
"2/8/2020 18:04:13.050",1.348,1.059,0.813,2020-02-08 18:04:13.049
"2/8/2020 18:04:13.063",1.469,1.02,0.52,2020-02-08 18:04:13.062
"2/8/2020 18:04:13.075",0.945,0.617,0.715,2020-02-08 18:04:13.075
"2/8/2020 18:04:13.088",0.043,0.258,1.082,2020-02-08 18:04:13.088
"2/8/2020 18:04:13.100",-0.84,0.117,1.438,2020-02-08 18:04:13.099
"2/8/2020 18:04:13.113",-1.496,0.07,1.867,2020-02-08 18:04:13.112
"2/8/2020 18:04:13.125",-0.555,1.313,1.152,2020-02-08 18:04:13.125
"2/8/2020 18:04:13.138",0.316,4.137,0.609,2020-02-08 18:04:13.138
"2/8/2020 18:04:13.150",-1.367,1.93,-0.434,2020-02-08 18:04:13.150
"2/8/2020 18:04:13.163",-0.387,0.582,-0.367,2020-02-08 18:04:13.163
"2/8/2020 18:04:13.175",0.176,0.488,-0.227,2020-02-08 18:04:13.174
"2/8/2020 18:04:13.188",0.348,0.875,-0.148,2020-02-08 18:04:13.187
"2/8/2020 18:04:13.200",0.09,1.051,-0.105,2020-02-08 18:04:13.200
"2/8/2020 18:04:13.213",0.301,1.074,-0.098,2020-02-08 18:04:13.213
"2/8/2020 18:04:13.225",0.484,1.117,-0.109,2020-02-08 18:04:13.224
"2/8/2020 18:04:13.238",0.422,1.035,-0.066,2020-02-08 18:04:13.237
"2/8/2020 18:04:13.250",0.297,1.043,-0.012,2020-02-08 18:04:13.250
"2/8/2020 18:04:13.263",0.199,1.027,0.035,2020-02-08 18:04:13.263
"2/8/2020 18:04:13.275",0.215,1.008,0.078,2020-02-08 18:04:13.275
"2/8/2020 18:04:13.288",0.188,0.98,0.031,2020-02-08 18:04:13.288
"2/8/2020 18:04:13.300",0.207,0.949,-0.059,2020-02-08 18:04:13.299
"2/8/2020 18:04:13.313",0.262,0.969,-0.145,2020-02-08 18:04:13.312
"2/8/2020 18:04:13.325",0.297,0.98,-0.188,2020-02-08 18:04:13.325
"2/8/2020 18:04:13.338",0.289,0.969,-0.223,2020-02-08 18:04:13.338
"2/8/2020 18:04:13.350",0.246,0.973,-0.23,2020-02-08 18:04:13.349
"2/8/2020 18:04:13.363",0.203,0.973,-0.246,2020-02-08 18:04:13.362
"2/8/2020 18:04:13.375",0.18,0.98,-0.25,2020-02-08 18:04:13.375
"2/8/2020 18:04:13.388",0.203,0.965,-0.25,2020-02-08 18:04:13.388
"2/8/2020 18:04:13.400",0.227,0.965,-0.199,2020-02-08 18:04:13.400
"2/8/2020 18:04:13.413",0.238,0.98,-0.168,2020-02-08 18:04:13.413
"2/8/2020 18:04:13.425",0.227,0.984,-0.18,2020-02-08 18:04:13.424
"2/8/2020 18:04:13.438",0.23,0.965,-0.188,2020-02-08 18:04:13.437
"2/8/2020 18:04:13.450",0.223,0.934,-0.195,2020-02-08 18:04:13.450
"2/8/2020 18:04:13.463",0.246,0.926,-0.242,2020-02-08 18:04:13.463
"2/8/2020 18:04:13.475",0.254,0.941,-0.281,2020-02-08 18:04:13.474
"2/8/2020 18:04:13.488",0.207,0.977,-0.285,2020-02-08 18:04:13.487
"2/8/2020 18:04:13.500",0.203,1,-0.25,2020-02-08 18:04:13.500
"2/8/2020 18:04:13.513",0.207,0.965,-0.215,2020-02-08 18:04:13.513
"2/8/2020 18:04:13.525",0.125,0.914,-0.207,2020-02-08 18:04:13.525
"2/8/2020 18:04:13.538",0.059,0.918,-0.156,2020-02-08 18:04:13.538
"2/8/2020 18:04:13.550",-0.004,1.043,-0.113,2020-02-08 18:04:13.549
"2/8/2020 18:04:13.563",0.039,1.164,-0.23,2020-02-08 18:04:13.562
"2/8/2020 18:04:13.575",0.09,1.117,-0.453,2020-02-08 18:04:13.575
"2/8/2020 18:04:13.588",-0.031,0.934,-0.559,2020-02-08 18:04:13.588
"2/8/2020 18:04:13.600",-0.449,1.023,-0.629,2020-02-08 18:04:13.599
"2/8/2020 18:04:13.613",-0.938,1.328,-0.879,2020-02-08 18:04:13.612
"2/8/2020 18:04:13.625",-1.309,1.477,-1.266,2020-02-08 18:04:13.625
"2/8/2020 18:04:13.638",-1.516,1.523,-1.449,2020-02-08 18:04:13.638
"2/8/2020 18:04:13.650",-2.297,1.262,-0.945,2020-02-08 18:04:13.650
"2/8/2020 18:04:13.663",-3.363,0.801,0.055,2020-02-08 18:04:13.663
"2/8/2020 18:04:13.675",-3.996,0.461,1.258,2020-02-08 18:04:13.674
"2/8/2020 18:04:13.688",-3.594,0.379,2.191,2020-02-08 18:04:13.687
"2/8/2020 18:04:13.700",-2.832,0.621,2.813,2020-02-08 18:04:13.700
"2/8/2020 18:04:13.713",-1.371,1.246,2.727,2020-02-08 18:04:13.713
"2/8/2020 18:04:13.725",0.141,1.82,2.035,2020-02-08 18:04:13.724
"2/8/2020 18:04:13.738",0.125,1.559,1.199,2020-02-08 18:04:13.737
"2/8/2020 18:04:13.750",-0.723,1.059,0.84,2020-02-08 18:04:13.750
"2/8/2020 18:04:13.763",-1.91,0.27,1.168,2020-02-08 18:04:13.763
"2/8/2020 18:04:13.775",-2.234,-0.035,1.934,2020-02-08 18:04:13.775
"2/8/2020 18:04:13.788",-0.227,0.398,2.43,2020-02-08 18:04:13.788
"2/8/2020 18:04:13.800",2.07,1.207,3.078,2020-02-08 18:04:13.799
"2/8/2020 18:04:13.813",1.699,1.367,2.926,2020-02-08 18:04:13.812
"2/8/2020 18:04:13.825",0.969,1.926,0.945,2020-02-08 18:04:13.825
"2/8/2020 18:04:13.838",-0.332,1.73,-0.602,2020-02-08 18:04:13.838
"2/8/2020 18:04:13.850",-0.332,1.063,-0.934,2020-02-08 18:04:13.849
"2/8/2020 18:04:13.863",-0.238,0.773,-0.457,2020-02-08 18:04:13.862
"2/8/2020 18:04:13.875",-0.215,0.563,-0.105,2020-02-08 18:04:13.875
"2/8/2020 18:04:13.888",0.188,0.695,-0.172,2020-02-08 18:04:13.888
"2/8/2020 18:04:13.900",0.617,0.988,-0.332,2020-02-08 18:04:13.900
"2/8/2020 18:04:13.913",0.668,1.125,-0.406,2020-02-08 18:04:13.913
"2/8/2020 18:04:13.925",0.477,1.074,-0.336,2020-02-08 18:04:13.924
"2/8/2020 18:04:13.938",0.344,1,-0.156,2020-02-08 18:04:13.937
"2/8/2020 18:04:13.950",0.313,1.016,-0.051,2020-02-08 18:04:13.950
"2/8/2020 18:04:13.963",0.352,1.039,0.039,2020-02-08 18:04:13.963
"2/8/2020 18:04:13.975",0.328,1.008,0.09,2020-02-08 18:04:13.974
"2/8/2020 18:04:13.988",0.25,0.949,0.031,2020-02-08 18:04:13.987
"2/8/2020 18:04:14.000",0.16,0.895,-0.129,2020-02-08 18:04:14.000
"2/8/2020 18:04:14.013",0.164,0.906,-0.309,2020-02-08 18:04:14.013
"2/8/2020 18:04:14.025",0.211,0.922,-0.363,2020-02-08 18:04:14.025
"2/8/2020 18:04:14.038",0.238,0.945,-0.336,2020-02-08 18:04:14.038
"2/8/2020 18:04:14.050",0.211,0.961,-0.383,2020-02-08 18:04:14.049
"2/8/2020 18:04:14.063",0.16,0.98,-0.457,2020-02-08 18:04:14.062
"2/8/2020 18:04:14.075",0.117,1.035,-0.445,2020-02-08 18:04:14.075
"2/8/2020 18:04:14.088",0.031,1.09,-0.441,2020-02-08 18:04:14.088
"2/8/2020 18:04:14.100",-0.172,1.063,-0.371,2020-02-08 18:04:14.099
"2/8/2020 18:04:14.113",-0.316,1.027,-0.426,2020-02-08 18:04:14.112
"2/8/2020 18:04:14.125",-0.324,0.988,-0.715,2020-02-08 18:04:14.125
"2/8/2020 18:04:14.138",-0.457,1.148,-0.871,2020-02-08 18:04:14.138
"2/8/2020 18:04:14.150",-0.555,1.297,-0.945,2020-02-08 18:04:14.150
"2/8/2020 18:04:14.163",-0.688,1.383,-1.047,2020-02-08 18:04:14.163
"2/8/2020 18:04:14.175",-0.938,1.461,-1,2020-02-08 18:04:14.174
"2/8/2020 18:04:14.188",-1.391,1.543,-0.715,2020-02-08 18:04:14.187
"2/8/2020 18:04:14.200",-2.074,1.395,-0.32,2020-02-08 18:04:14.200
"2/8/2020 18:04:14.213",-2.664,0.969,0.164,2020-02-08 18:04:14.213
"2/8/2020 18:04:14.225",-3.047,0.578,0.688,2020-02-08 18:04:14.224
"2/8/2020 18:04:14.238",-2.922,0.484,1.035,2020-02-08 18:04:14.237
"2/8/2020 18:04:14.250",-2.285,0.711,1.199,2020-02-08 18:04:14.250
"2/8/2020 18:04:14.263",-1.453,1.074,1.184,2020-02-08 18:04:14.263
"2/8/2020 18:04:14.275",-0.73,1.41,1.035,2020-02-08 18:04:14.275
"2/8/2020 18:04:14.288",-0.34,1.477,1.047,2020-02-08 18:04:14.288
"2/8/2020 18:04:14.300",-0.59,1.16,1.457,2020-02-08 18:04:14.299
"2/8/2020 18:04:14.313",-0.746,0.824,2.273,2020-02-08 18:04:14.312
"2/8/2020 18:04:14.325",-0.09,0.625,2.742,2020-02-08 18:04:14.325
"2/8/2020 18:04:14.338",1.047,0.797,4.184,2020-02-08 18:04:14.338
"2/8/2020 18:04:14.350",1.805,1.977,3.66,2020-02-08 18:04:14.349
"2/8/2020 18:04:14.363",1.313,1.609,1.223,2020-02-08 18:04:14.362
"2/8/2020 18:04:14.375",0.078,0.859,-0.25,2020-02-08 18:04:14.375
"2/8/2020 18:04:14.388",-0.84,0.906,-0.902,2020-02-08 18:04:14.388
"2/8/2020 18:04:14.400",-1.223,0.879,-0.637,2020-02-08 18:04:14.400
"2/8/2020 18:04:14.413",-0.703,0.598,-0.074,2020-02-08 18:04:14.413
"2/8/2020 18:04:14.425",-0.043,0.766,0.125,2020-02-08 18:04:14.424
"2/8/2020 18:04:14.438",0.527,1.098,-0.086,2020-02-08 18:04:14.437
"2/8/2020 18:04:14.450",0.895,1.277,-0.289,2020-02-08 18:04:14.450
"2/8/2020 18:04:14.463",0.645,1.082,-0.332,2020-02-08 18:04:14.463
"2/8/2020 18:04:14.475",0.34,0.953,-0.215,2020-02-08 18:04:14.474
"2/8/2020 18:04:14.488",0.238,0.926,-0.031,2020-02-08 18:04:14.487
"2/8/2020 18:04:14.500",0.199,0.957,0.074,2020-02-08 18:04:14.500
"2/8/2020 18:04:14.513",0.176,1.012,0.102,2020-02-08 18:04:14.513
"2/8/2020 18:04:14.525",0.254,1.027,0.063,2020-02-08 18:04:14.525
"2/8/2020 18:04:14.538",0.352,1.012,-0.02,2020-02-08 18:04:14.538
"2/8/2020 18:04:14.550",0.375,1.02,-0.152,2020-02-08 18:04:14.549
"2/8/2020 18:04:14.563",0.379,0.953,-0.297,2020-02-08 18:04:14.562
"2/8/2020 18:04:14.575",0.32,0.922,-0.348,2020-02-08 18:04:14.575
"2/8/2020 18:04:14.588",0.18,0.926,-0.363,2020-02-08 18:04:14.588
"2/8/2020 18:04:14.600",0.102,1.016,-0.402,2020-02-08 18:04:14.599
"2/8/2020 18:04:14.613",0.004,1.105,-0.422,2020-02-08 18:04:14.612
"2/8/2020 18:04:14.625",-0.16,1.102,-0.406,2020-02-08 18:04:14.625
"2/8/2020 18:04:14.638",-0.371,1.074,-0.34,2020-02-08 18:04:14.638
"2/8/2020 18:04:14.650",-0.371,1.145,-0.117,2020-02-08 18:04:14.650
"2/8/2020 18:04:14.663",-0.566,1.418,-0.207,2020-02-08 18:04:14.663
"2/8/2020 18:04:14.675",-0.891,2.133,-1.77,2020-02-08 18:04:14.674
"2/8/2020 18:04:14.688",-0.879,1.574,-2.348,2020-02-08 18:04:14.687
"2/8/2020 18:04:14.700",-1.445,1.512,-2.004,2020-02-08 18:04:14.700
"2/8/2020 18:04:14.713",-2.051,1.105,-1.195,2020-02-08 18:04:14.713
"2/8/2020 18:04:14.725",-2.125,0.891,-0.094,2020-02-08 18:04:14.724
"2/8/2020 18:04:14.738",-1.676,0.902,0.668,2020-02-08 18:04:14.737
"2/8/2020 18:04:14.750",-1.117,0.93,1.035,2020-02-08 18:04:14.750
"2/8/2020 18:04:14.763",-0.516,1.008,1.121,2020-02-08 18:04:14.763
"2/8/2020 18:04:14.775",-0.535,0.91,1.082,2020-02-08 18:04:14.775
"2/8/2020 18:04:14.788",-0.863,0.684,1.191,2020-02-08 18:04:14.788
"2/8/2020 18:04:14.800",-1.52,0.441,1.422,2020-02-08 18:04:14.799
"2/8/2020 18:04:14.813",-2.289,0.176,1.754,2020-02-08 18:04:14.812
"2/8/2020 18:04:14.825",-2.059,0.008,2.145,2020-02-08 18:04:14.825
"2/8/2020 18:04:14.838",1,0.902,2.414,2020-02-08 18:04:14.838
"2/8/2020 18:04:14.850",2.504,2.363,2.598,2020-02-08 18:04:14.849
"2/8/2020 18:04:14.863",0.895,2.727,1.281,2020-02-08 18:04:14.862
"2/8/2020 18:04:14.875",-0.418,2.129,-0.285,2020-02-08 18:04:14.875
"2/8/2020 18:04:14.888",-0.348,1,-0.883,2020-02-08 18:04:14.888
"2/8/2020 18:04:14.900",-0.105,0.594,-0.574,2020-02-08 18:04:14.900
"2/8/2020 18:04:14.913",-0.172,0.395,-0.207,2020-02-08 18:04:14.913
"2/8/2020 18:04:14.925",-0.023,0.547,-0.02,2020-02-08 18:04:14.924
"2/8/2020 18:04:14.938",0.301,0.941,-0.035,2020-02-08 18:04:14.937
"2/8/2020 18:04:14.950",0.566,1.25,-0.18,2020-02-08 18:04:14.950
"2/8/2020 18:04:14.963",0.719,1.215,-0.41,2020-02-08 18:04:14.963
"2/8/2020 18:04:14.975",0.516,1.016,-0.418,2020-02-08 18:04:14.974
"2/8/2020 18:04:14.988",0.289,0.953,-0.301,2020-02-08 18:04:14.987
"2/8/2020 18:04:15.000",0.129,0.977,-0.152,2020-02-08 18:04:15.000
"2/8/2020 18:04:15.013",0.047,0.965,-0.129,2020-02-08 18:04:15.013
"2/8/2020 18:04:15.025",0.008,0.926,-0.199,2020-02-08 18:04:15.025
"2/8/2020 18:04:15.038",0.051,0.938,-0.223,2020-02-08 18:04:15.038
"2/8/2020 18:04:15.050",0.117,0.965,-0.211,2020-02-08 18:04:15.049
"2/8/2020 18:04:15.063",0.211,0.98,-0.188,2020-02-08 18:04:15.062
"2/8/2020 18:04:15.075",0.258,0.984,-0.227,2020-02-08 18:04:15.075
"2/8/2020 18:04:15.088",0.176,1,-0.336,2020-02-08 18:04:15.088
"2/8/2020 18:04:15.100",0.027,0.992,-0.355,2020-02-08 18:04:15.099
"2/8/2020 18:04:15.113",-0.164,1.063,-0.367,2020-02-08 18:04:15.112
"2/8/2020 18:04:15.125",-0.266,1.145,-0.289,2020-02-08 18:04:15.125
"2/8/2020 18:04:15.138",-0.32,1.188,-0.195,2020-02-08 18:04:15.138
"2/8/2020 18:04:15.150",-0.328,1.23,-0.5,2020-02-08 18:04:15.150
"2/8/2020 18:04:15.163",-0.336,1.324,-1.262,2020-02-08 18:04:15.163
"2/8/2020 18:04:15.175",-0.527,1.172,-1.66,2020-02-08 18:04:15.174
"2/8/2020 18:04:15.188",-0.91,0.906,-1.309,2020-02-08 18:04:15.187
"2/8/2020 18:04:15.200",-1.344,0.824,-0.813,2020-02-08 18:04:15.200
"2/8/2020 18:04:15.213",-1.355,0.891,-0.238,2020-02-08 18:04:15.213
"2/8/2020 18:04:15.225",-0.949,0.957,0.211,2020-02-08 18:04:15.224
"2/8/2020 18:04:15.238",-0.52,1.008,0.539,2020-02-08 18:04:15.237
"2/8/2020 18:04:15.250",-0.207,1.086,0.781,2020-02-08 18:04:15.250
"2/8/2020 18:04:15.263",-0.008,1.156,0.906,2020-02-08 18:04:15.263
"2/8/2020 18:04:15.275",0.184,0.996,1.121,2020-02-08 18:04:15.275
"2/8/2020 18:04:15.288",0.254,0.996,1.332,2020-02-08 18:04:15.288
"2/8/2020 18:04:15.300",0.27,1.035,1.457,2020-02-08 18:04:15.299
"2/8/2020 18:04:15.313",0.141,0.996,1.488,2020-02-08 18:04:15.312
"2/8/2020 18:04:15.325",0.137,0.934,1.445,2020-02-08 18:04:15.325
"2/8/2020 18:04:15.338",0.301,0.934,1.32,2020-02-08 18:04:15.338
"2/8/2020 18:04:15.350",0.508,0.941,1.109,2020-02-08 18:04:15.349
"2/8/2020 18:04:15.363",0.676,0.941,0.859,2020-02-08 18:04:15.362
"2/8/2020 18:04:15.375",0.695,0.93,0.625,2020-02-08 18:04:15.375
"2/8/2020 18:04:15.388",0.715,0.93,0.438,2020-02-08 18:04:15.388
"2/8/2020 18:04:15.400",0.656,0.891,0.383,2020-02-08 18:04:15.400
"2/8/2020 18:04:15.413",0.441,0.813,0.453,2020-02-08 18:04:15.413
"2/8/2020 18:04:15.425",0.164,0.641,0.555,2020-02-08 18:04:15.424
"2/8/2020 18:04:15.438",0.02,0.523,0.582,2020-02-08 18:04:15.437
"2/8/2020 18:04:15.450",0.008,0.512,0.516,2020-02-08 18:04:15.450
"2/8/2020 18:04:15.463",0.074,0.582,0.375,2020-02-08 18:04:15.463
"2/8/2020 18:04:15.475",0.125,0.66,0.176,2020-02-08 18:04:15.474
"2/8/2020 18:04:15.488",0.102,0.684,0.113,2020-02-08 18:04:15.487
"2/8/2020 18:04:15.500",0.023,0.738,0.121,2020-02-08 18:04:15.500
"2/8/2020 18:04:15.513",0.023,0.871,0.074,2020-02-08 18:04:15.513
"2/8/2020 18:04:15.525",0.23,1.176,-0.094,2020-02-08 18:04:15.525
"2/8/2020 18:04:15.538",0.336,1.465,-0.895,2020-02-08 18:04:15.538
"2/8/2020 18:04:15.550",0.172,1.074,-1.203,2020-02-08 18:04:15.549
"2/8/2020 18:04:15.563",-0.398,1.113,-1.289,2020-02-08 18:04:15.562
"2/8/2020 18:04:15.575",-0.816,1.305,-1.406,2020-02-08 18:04:15.575
"2/8/2020 18:04:15.588",-0.875,1.27,-1,2020-02-08 18:04:15.588
"2/8/2020 18:04:15.600",-0.707,1.207,0.063,2020-02-08 18:04:15.599
"2/8/2020 18:04:15.613",-0.68,1.535,0.945,2020-02-08 18:04:15.612
"2/8/2020 18:04:15.625",0.082,1.727,0.766,2020-02-08 18:04:15.625
"2/8/2020 18:04:15.638",0.668,1.41,0.277,2020-02-08 18:04:15.638
"2/8/2020 18:04:15.650",0.672,0.766,0.098,2020-02-08 18:04:15.650
"2/8/2020 18:04:15.663",0.344,0.633,0,2020-02-08 18:04:15.663
"2/8/2020 18:04:15.675",0.035,0.785,-0.07,2020-02-08 18:04:15.674
"2/8/2020 18:04:15.688",-0.016,0.965,-0.105,2020-02-08 18:04:15.687
"2/8/2020 18:04:15.700",0.109,1.035,-0.086,2020-02-08 18:04:15.700
"2/8/2020 18:04:15.713",0.258,1.082,-0.059,2020-02-08 18:04:15.713
"2/8/2020 18:04:15.725",0.387,1.004,-0.059,2020-02-08 18:04:15.724
"2/8/2020 18:04:15.738",0.43,0.98,-0.074,2020-02-08 18:04:15.737
"2/8/2020 18:04:15.750",0.316,0.98,-0.082,2020-02-08 18:04:15.750
"2/8/2020 18:04:15.763",0.281,0.98,0.008,2020-02-08 18:04:15.763
"2/8/2020 18:04:15.775",0.258,0.961,0.09,2020-02-08 18:04:15.775
"2/8/2020 18:04:15.788",0.219,0.953,0.039,2020-02-08 18:04:15.788
"2/8/2020 18:04:15.800",0.148,0.961,-0.074,2020-02-08 18:04:15.799
"2/8/2020 18:04:15.813",0.145,0.977,-0.125,2020-02-08 18:04:15.812
"2/8/2020 18:04:15.825",0.148,0.957,-0.063,2020-02-08 18:04:15.825
"2/8/2020 18:04:15.838",0.238,0.934,0.027,2020-02-08 18:04:15.838
"2/8/2020 18:04:15.850",0.25,0.941,0.082,2020-02-08 18:04:15.849
"2/8/2020 18:04:15.863",0.254,0.969,0.039,2020-02-08 18:04:15.862
"2/8/2020 18:04:15.875",0.289,0.992,-0.039,2020-02-08 18:04:15.875
"2/8/2020 18:04:15.888",0.27,0.965,-0.086,2020-02-08 18:04:15.888
"2/8/2020 18:04:15.900",0.215,0.938,-0.09,2020-02-08 18:04:15.900
"2/8/2020 18:04:15.913",0.199,0.945,-0.129,2020-02-08 18:04:15.913
"2/8/2020 18:04:15.925",0.215,0.969,-0.152,2020-02-08 18:04:15.924
"2/8/2020 18:04:15.938",0.227,0.969,-0.145,2020-02-08 18:04:15.937
"2/8/2020 18:04:15.950",0.199,0.973,-0.109,2020-02-08 18:04:15.950
"2/8/2020 18:04:15.963",0.23,0.98,-0.117,2020-02-08 18:04:15.963
"2/8/2020 18:04:15.975",0.262,0.984,-0.129,2020-02-08 18:04:15.974
"2/8/2020 18:04:15.988",0.273,0.98,-0.117,2020-02-08 18:04:15.987
"2/8/2020 18:04:16.000",0.238,0.973,-0.098,2020-02-08 18:04:16.000
"2/8/2020 18:04:16.013",0.242,0.957,-0.082,2020-02-08 18:04:16.013
"2/8/2020 18:04:16.025",0.305,1.012,-0.039,2020-02-08 18:04:16.025
"2/8/2020 18:04:16.038",0.285,0.992,-0.063,2020-02-08 18:04:16.038
"2/8/2020 18:04:16.050",0.266,0.98,-0.09,2020-02-08 18:04:16.049
"2/8/2020 18:04:16.063",0.223,1,-0.063,2020-02-08 18:04:16.062
"2/8/2020 18:04:16.075",0.215,0.992,0.016,2020-02-08 18:04:16.075
"2/8/2020 18:04:16.088",0.105,0.988,-0.039,2020-02-08 18:04:16.088
"2/8/2020 18:04:16.100",0.238,1.02,-0.219,2020-02-08 18:04:16.099
"2/8/2020 18:04:16.113",0.297,0.965,-0.18,2020-02-08 18:04:16.112
"2/8/2020 18:04:16.125",0.262,0.93,-0.082,2020-02-08 18:04:16.125
"2/8/2020 18:04:16.138",0.215,0.957,-0.043,2020-02-08 18:04:16.138
"2/8/2020 18:04:16.150",0.188,0.992,-0.031,2020-02-08 18:04:16.150
"2/8/2020 18:04:16.163",0.156,1.008,-0.027,2020-02-08 18:04:16.163
"2/8/2020 18:04:16.175",0.125,1.027,-0.035,2020-02-08 18:04:16.174
"2/8/2020 18:04:16.188",0.152,1.031,-0.027,2020-02-08 18:04:16.187
"2/8/2020 18:04:16.200",0.152,1.02,-0.012,2020-02-08 18:04:16.200
"2/8/2020 18:04:16.213",0.156,1.004,-0.012,2020-02-08 18:04:16.213
"2/8/2020 18:04:16.225",0.172,0.98,-0.004,2020-02-08 18:04:16.224
"2/8/2020 18:04:16.238",0.211,0.965,0.02,2020-02-08 18:04:16.237
"2/8/2020 18:04:16.250",0.254,0.957,0.063,2020-02-08 18:04:16.250
"2/8/2020 18:04:16.263",0.234,1,0.066,2020-02-08 18:04:16.263
"2/8/2020 18:04:16.275",0.199,1.035,0.023,2020-02-08 18:04:16.275
"2/8/2020 18:04:16.288",0.223,1.055,-0.031,2020-02-08 18:04:16.288
"2/8/2020 18:04:16.300",0.254,1.145,-0.121,2020-02-08 18:04:16.299
"2/8/2020 18:04:16.313",0.266,1.328,-0.453,2020-02-08 18:04:16.312
"2/8/2020 18:04:16.325",0.297,1.25,-0.734,2020-02-08 18:04:16.325
"2/8/2020 18:04:16.338",0.238,1.234,-0.676,2020-02-08 18:04:16.338
"2/8/2020 18:04:16.350",0.145,1.305,-0.57,2020-02-08 18:04:16.349
"2/8/2020 18:04:16.363",0.043,1.313,-0.48,2020-02-08 18:04:16.362
"2/8/2020 18:04:16.375",0.008,1.211,-0.375,2020-02-08 18:04:16.375
"2/8/2020 18:04:16.388",0.043,1.148,-0.297,2020-02-08 18:04:16.388
"2/8/2020 18:04:16.400",0.074,1.117,-0.234,2020-02-08 18:04:16.400
"2/8/2020 18:04:16.413",0.035,1.066,-0.164,2020-02-08 18:04:16.413
"2/8/2020 18:04:16.425",-0.063,0.973,-0.094,2020-02-08 18:04:16.424
"2/8/2020 18:04:16.438",-0.223,0.824,-0.02,2020-02-08 18:04:16.437
"2/8/2020 18:04:16.450",-0.391,0.625,0.051,2020-02-08 18:04:16.450
"2/8/2020 18:04:16.463",-0.586,0.41,0.141,2020-02-08 18:04:16.463
"2/8/2020 18:04:16.475",-0.809,0.164,0.227,2020-02-08 18:04:16.474
"2/8/2020 18:04:16.488",-0.988,-0.07,0.293,2020-02-08 18:04:16.487
"2/8/2020 18:04:16.500",-1.113,-0.242,0.316,2020-02-08 18:04:16.500
"2/8/2020 18:04:16.513",-1.09,-0.289,0.355,2020-02-08 18:04:16.513
"2/8/2020 18:04:16.525",-1.027,-0.293,0.375,2020-02-08 18:04:16.525
"2/8/2020 18:04:16.538",-0.863,-0.129,0.449,2020-02-08 18:04:16.538
"2/8/2020 18:04:16.550",-0.18,0.344,-0.895,2020-02-08 18:04:16.549
"2/8/2020 18:04:16.563",1.758,1.535,-1.563,2020-02-08 18:04:16.562
"2/8/2020 18:04:16.575",-1.598,-0.34,0.199,2020-02-08 18:04:16.575
"2/8/2020 18:04:16.588",-1.398,0.184,0.371,2020-02-08 18:04:16.588
"2/8/2020 18:04:16.600",-1.629,-0.57,0.102,2020-02-08 18:04:16.599
"2/8/2020 18:04:16.613",-0.199,0.172,-0.445,2020-02-08 18:04:16.612
"2/8/2020 18:04:16.625",0.5,0.859,-0.387,2020-02-08 18:04:16.625
"2/8/2020 18:04:16.638",0.449,1.035,0.141,2020-02-08 18:04:16.638
"2/8/2020 18:04:16.650",0.125,1.273,0.406,2020-02-08 18:04:16.650
"2/8/2020 18:04:16.663",0.063,1.27,0.328,2020-02-08 18:04:16.663
"2/8/2020 18:04:16.675",0.293,1.086,0.137,2020-02-08 18:04:16.674
"2/8/2020 18:04:16.688",0.391,0.941,-0.012,2020-02-08 18:04:16.687
"2/8/2020 18:04:16.700",0.449,0.934,-0.223,2020-02-08 18:04:16.700
"2/8/2020 18:04:16.713",0.395,0.98,-0.309,2020-02-08 18:04:16.713
"2/8/2020 18:04:16.725",0.25,1,-0.23,2020-02-08 18:04:16.724
"2/8/2020 18:04:16.738",0.164,0.969,-0.164,2020-02-08 18:04:16.737
"2/8/2020 18:04:16.750",0.191,0.926,-0.168,2020-02-08 18:04:16.750
"2/8/2020 18:04:16.763",0.254,0.914,-0.168,2020-02-08 18:04:16.763
"2/8/2020 18:04:16.775",0.352,0.949,-0.168,2020-02-08 18:04:16.775
"2/8/2020 18:04:16.788",0.383,0.992,-0.129,2020-02-08 18:04:16.788
"2/8/2020 18:04:16.800",0.355,1.016,-0.102,2020-02-08 18:04:16.799
"2/8/2020 18:04:16.813",0.313,0.992,-0.082,2020-02-08 18:04:16.812
"2/8/2020 18:04:16.825",0.273,0.953,-0.09,2020-02-08 18:04:16.825
"2/8/2020 18:04:16.838",0.234,0.926,-0.086,2020-02-08 18:04:16.838
"2/8/2020 18:04:16.850",0.227,0.918,-0.059,2020-02-08 18:04:16.849
"2/8/2020 18:04:16.863",0.238,0.926,-0.035,2020-02-08 18:04:16.862
"2/8/2020 18:04:16.875",0.277,0.945,-0.02,2020-02-08 18:04:16.875
"2/8/2020 18:04:16.888",0.324,0.961,-0.016,2020-02-08 18:04:16.888
"2/8/2020 18:04:16.900",0.344,0.973,-0.012,2020-02-08 18:04:16.900
"2/8/2020 18:04:16.913",0.324,0.984,-0.023,2020-02-08 18:04:16.913
"2/8/2020 18:04:16.925",0.297,0.969,-0.035,2020-02-08 18:04:16.924
"2/8/2020 18:04:16.938",0.297,0.953,-0.035,2020-02-08 18:04:16.937
"2/8/2020 18:04:16.950",0.285,0.945,-0.031,2020-02-08 18:04:16.950
"2/8/2020 18:04:16.963",0.258,0.934,-0.012,2020-02-08 18:04:16.963
"2/8/2020 18:04:16.975",0.23,0.957,-0.031,2020-02-08 18:04:16.974
"2/8/2020 18:04:16.988",0.219,0.98,-0.074,2020-02-08 18:04:16.987
"2/8/2020 18:04:17.000",0.191,1.012,-0.082,2020-02-08 18:04:17.000
"2/8/2020 18:04:17.013",0.199,1.031,-0.063,2020-02-08 18:04:17.013
"2/8/2020 18:04:17.025",0.156,1.02,-0.074,2020-02-08 18:04:17.025
"2/8/2020 18:04:17.038",0.098,1.031,-0.188,2020-02-08 18:04:17.038
"2/8/2020 18:04:17.050",0.117,1.113,-0.32,2020-02-08 18:04:17.049
"2/8/2020 18:04:17.063",0.055,1.188,-0.445,2020-02-08 18:04:17.062
"2/8/2020 18:04:17.075",-0.102,1.375,-0.676,2020-02-08 18:04:17.075
"2/8/2020 18:04:17.088",-0.254,1.539,-0.852,2020-02-08 18:04:17.088
"2/8/2020 18:04:17.100",-0.527,1.805,-0.785,2020-02-08 18:04:17.099
"2/8/2020 18:04:17.113",-0.938,1.973,-1.293,2020-02-08 18:04:17.112
"2/8/2020 18:04:17.125",-1.063,1.516,-1.105,2020-02-08 18:04:17.125
"2/8/2020 18:04:17.138",-0.902,1.379,-0.512,2020-02-08 18:04:17.138
"2/8/2020 18:04:17.150",-0.285,1.391,-0.238,2020-02-08 18:04:17.150
"2/8/2020 18:04:17.163",0.121,1.387,-0.324,2020-02-08 18:04:17.163
"2/8/2020 18:04:17.175",0.328,1.313,-0.516,2020-02-08 18:04:17.174
"2/8/2020 18:04:17.188",-0.051,0.98,-0.438,2020-02-08 18:04:17.187
"2/8/2020 18:04:17.200",-0.859,0.297,-0.168,2020-02-08 18:04:17.200
"2/8/2020 18:04:17.213",-1.234,-0.051,0.121,2020-02-08 18:04:17.213
"2/8/2020 18:04:17.225",-1.445,-0.285,0.574,2020-02-08 18:04:17.224
"2/8/2020 18:04:17.238",-1.461,-0.418,0.945,2020-02-08 18:04:17.237
"2/8/2020 18:04:17.250",-0.754,-0.105,1.047,2020-02-08 18:04:17.250
"2/8/2020 18:04:17.263",2.969,-0.391,4.027,2020-02-08 18:04:17.263
"2/8/2020 18:04:17.275",0.801,3.207,4.305,2020-02-08 18:04:17.275
"2/8/2020 18:04:17.288",1.004,1.777,1.344,2020-02-08 18:04:17.288
"2/8/2020 18:04:17.300",0.617,0.66,0.379,2020-02-08 18:04:17.299
"2/8/2020 18:04:17.313",0.457,0.223,0.805,2020-02-08 18:04:17.312
"2/8/2020 18:04:17.325",0.316,0.508,0.313,2020-02-08 18:04:17.325
"2/8/2020 18:04:17.338",-0.816,1.043,-0.156,2020-02-08 18:04:17.338
"2/8/2020 18:04:17.350",-1.52,1.172,-0.5,2020-02-08 18:04:17.349
"2/8/2020 18:04:17.363",-0.969,0.844,-0.41,2020-02-08 18:04:17.362
"2/8/2020 18:04:17.375",-0.195,0.691,-0.129,2020-02-08 18:04:17.375
"2/8/2020 18:04:17.388",0.398,0.852,-0.055,2020-02-08 18:04:17.388
"2/8/2020 18:04:17.400",0.754,1.211,-0.016,2020-02-08 18:04:17.400
"2/8/2020 18:04:17.413",0.77,1.207,-0.027,2020-02-08 18:04:17.413
"2/8/2020 18:04:17.425",0.652,1.09,-0.098,2020-02-08 18:04:17.424
"2/8/2020 18:04:17.438",0.41,0.906,-0.121,2020-02-08 18:04:17.437
"2/8/2020 18:04:17.450",0.184,0.832,0.023,2020-02-08 18:04:17.450
"2/8/2020 18:04:17.463",0.027,0.906,0.207,2020-02-08 18:04:17.463
"2/8/2020 18:04:17.475",-0.047,0.98,0.27,2020-02-08 18:04:17.474
"2/8/2020 18:04:17.488",0.035,1.047,0.285,2020-02-08 18:04:17.487
"2/8/2020 18:04:17.500",0.109,1.023,0.277,2020-02-08 18:04:17.500
"2/8/2020 18:04:17.513",0.211,0.988,0.254,2020-02-08 18:04:17.513
"2/8/2020 18:04:17.525",0.336,0.996,0.215,2020-02-08 18:04:17.525
"2/8/2020 18:04:17.538",0.371,1.008,0.18,2020-02-08 18:04:17.538
"2/8/2020 18:04:17.550",0.293,1.066,0.195,2020-02-08 18:04:17.549
"2/8/2020 18:04:17.563",0.098,1.152,0.152,2020-02-08 18:04:17.562
"2/8/2020 18:04:17.575",0.102,1.195,-0.008,2020-02-08 18:04:17.575
"2/8/2020 18:04:17.588",0.023,1.207,-0.246,2020-02-08 18:04:17.588
"2/8/2020 18:04:17.600",-0.02,1.309,-0.543,2020-02-08 18:04:17.599
"2/8/2020 18:04:17.613",-0.012,1.449,-0.859,2020-02-08 18:04:17.612
"2/8/2020 18:04:17.625",0.063,1.371,-0.762,2020-02-08 18:04:17.625
"2/8/2020 18:04:17.638",0.402,1.59,-0.93,2020-02-08 18:04:17.638
"2/8/2020 18:04:17.650",0.82,1.848,-1.023,2020-02-08 18:04:17.650
"2/8/2020 18:04:17.663",1.02,1.766,-0.656,2020-02-08 18:04:17.663
"2/8/2020 18:04:17.675",1.285,1.719,-0.523,2020-02-08 18:04:17.674
"2/8/2020 18:04:17.688",1.441,1.762,-0.504,2020-02-08 18:04:17.687
"2/8/2020 18:04:17.700",1.527,1.836,-0.48,2020-02-08 18:04:17.700
"2/8/2020 18:04:17.713",1.367,1.809,-0.402,2020-02-08 18:04:17.713
"2/8/2020 18:04:17.725",0.988,1.668,-0.293,2020-02-08 18:04:17.724
"2/8/2020 18:04:17.738",0.609,1.477,-0.156,2020-02-08 18:04:17.737
"2/8/2020 18:04:17.750",0.352,1.305,-0.035,2020-02-08 18:04:17.750
"2/8/2020 18:04:17.763",0.246,1.172,0.086,2020-02-08 18:04:17.763
"2/8/2020 18:04:17.775",0.27,1.141,0.164,2020-02-08 18:04:17.775
"2/8/2020 18:04:17.788",0.277,1.168,0.195,2020-02-08 18:04:17.788
"2/8/2020 18:04:17.800",0.254,1.188,0.199,2020-02-08 18:04:17.799
"2/8/2020 18:04:17.813",0.219,1.148,0.191,2020-02-08 18:04:17.812
"2/8/2020 18:04:17.825",0.141,1.082,0.211,2020-02-08 18:04:17.825
"2/8/2020 18:04:17.838",0.066,1,0.195,2020-02-08 18:04:17.838
"2/8/2020 18:04:17.850",-0.004,0.895,0.168,2020-02-08 18:04:17.849
"2/8/2020 18:04:17.863",-0.051,0.777,0.16,2020-02-08 18:04:17.862
"2/8/2020 18:04:17.875",-0.09,0.672,0.164,2020-02-08 18:04:17.875
"2/8/2020 18:04:17.888",-0.164,0.582,0.18,2020-02-08 18:04:17.888
"2/8/2020 18:04:17.900",-0.254,0.508,0.176,2020-02-08 18:04:17.900
"2/8/2020 18:04:17.913",-0.313,0.461,0.176,2020-02-08 18:04:17.913
"2/8/2020 18:04:17.925",-0.387,0.43,0.188,2020-02-08 18:04:17.924
"2/8/2020 18:04:17.938",-0.445,0.441,0.227,2020-02-08 18:04:17.937
"2/8/2020 18:04:17.950",-0.492,0.445,0.25,2020-02-08 18:04:17.950
"2/8/2020 18:04:17.963",-0.484,0.488,0.258,2020-02-08 18:04:17.963
"2/8/2020 18:04:17.975",-0.383,0.52,0.242,2020-02-08 18:04:17.974
"2/8/2020 18:04:17.988",-0.465,0.602,0.336,2020-02-08 18:04:17.987
"2/8/2020 18:04:18.000",-0.684,0.672,0.336,2020-02-08 18:04:18.000
"2/8/2020 18:04:18.013",-0.809,0.75,0.375,2020-02-08 18:04:18.013
"2/8/2020 18:04:18.025",-0.898,0.863,0.375,2020-02-08 18:04:18.025
"2/8/2020 18:04:18.038",-0.133,0.93,-0.441,2020-02-08 18:04:18.038
"2/8/2020 18:04:18.050",2.164,0.934,-0.867,2020-02-08 18:04:18.049
"2/8/2020 18:04:18.063",0.16,1.738,-0.867,2020-02-08 18:04:18.062
"2/8/2020 18:04:18.075",-3.039,-1.008,-1.047,2020-02-08 18:04:18.075
"2/8/2020 18:04:18.088",-0.805,0.09,0.926,2020-02-08 18:04:18.088
"2/8/2020 18:04:18.100",0.371,0.543,0.418,2020-02-08 18:04:18.099
"2/8/2020 18:04:18.113",0.172,0.855,0.191,2020-02-08 18:04:18.112
"2/8/2020 18:04:18.125",0.121,1.457,-0.066,2020-02-08 18:04:18.125
"2/8/2020 18:04:18.138",0.117,1.609,-0.207,2020-02-08 18:04:18.138
"2/8/2020 18:04:18.150",-0.258,1.469,-0.387,2020-02-08 18:04:18.150
"2/8/2020 18:04:18.163",-0.145,1.184,-0.43,2020-02-08 18:04:18.163
"2/8/2020 18:04:18.175",0.125,1.063,-0.34,2020-02-08 18:04:18.174
"2/8/2020 18:04:18.188",0.387,1.105,-0.199,2020-02-08 18:04:18.187
"2/8/2020 18:04:18.200",0.512,1.102,-0.074,2020-02-08 18:04:18.200
"2/8/2020 18:04:18.213",0.453,1.094,0.02,2020-02-08 18:04:18.213
"2/8/2020 18:04:18.225",0.332,1.02,0.055,2020-02-08 18:04:18.224
