"Timestamp","Accelerometer.X","Accelerometer.Y","Accelerometer.Z","DATE_TIME"
"2/8/2020 18:03:56.038",0.266,0.066,0.957,2020-02-08 18:03:56.038
"2/8/2020 18:03:56.050",0.266,0.059,0.957,2020-02-08 18:03:56.049
"2/8/2020 18:03:56.063",0.262,0.055,0.961,2020-02-08 18:03:56.062
"2/8/2020 18:03:56.075",0.266,0.043,0.965,2020-02-08 18:03:56.075
"2/8/2020 18:03:56.088",0.27,0.035,0.961,2020-02-08 18:03:56.088
"2/8/2020 18:03:56.100",0.266,0.02,0.949,2020-02-08 18:03:56.099
"2/8/2020 18:03:56.113",0.266,0.012,0.949,2020-02-08 18:03:56.112
"2/8/2020 18:03:56.125",0.266,0.016,0.934,2020-02-08 18:03:56.125
"2/8/2020 18:03:56.138",0.27,0.027,0.934,2020-02-08 18:03:56.138
"2/8/2020 18:03:56.150",0.273,0.004,0.945,2020-02-08 18:03:56.150
"2/8/2020 18:03:56.163",0.273,-0.008,0.949,2020-02-08 18:03:56.163
"2/8/2020 18:03:56.175",0.273,0.004,0.941,2020-02-08 18:03:56.174
"2/8/2020 18:03:56.188",0.277,0.004,0.945,2020-02-08 18:03:56.187
"2/8/2020 18:03:56.200",0.277,0.016,0.934,2020-02-08 18:03:56.200
"2/8/2020 18:03:56.213",0.281,0.035,0.93,2020-02-08 18:03:56.213
"2/8/2020 18:03:56.225",0.289,0.035,0.945,2020-02-08 18:03:56.224
"2/8/2020 18:03:56.238",0.301,0.02,0.977,2020-02-08 18:03:56.237
"2/8/2020 18:03:56.250",0.301,-0.004,1.004,2020-02-08 18:03:56.250
"2/8/2020 18:03:56.263",0.301,-0.008,1.008,2020-02-08 18:03:56.263
"2/8/2020 18:03:56.275",0.301,0.004,0.996,2020-02-08 18:03:56.275
"2/8/2020 18:03:56.288",0.293,0.02,0.98,2020-02-08 18:03:56.288
"2/8/2020 18:03:56.300",0.277,0.023,0.969,2020-02-08 18:03:56.299
"2/8/2020 18:03:56.313",0.27,0.02,0.961,2020-02-08 18:03:56.312
"2/8/2020 18:03:56.325",0.27,0.012,0.961,2020-02-08 18:03:56.325
"2/8/2020 18:03:56.338",0.266,0.008,0.965,2020-02-08 18:03:56.338
"2/8/2020 18:03:56.350",0.258,0,0.965,2020-02-08 18:03:56.349
"2/8/2020 18:03:56.363",0.258,0.004,0.965,2020-02-08 18:03:56.362
"2/8/2020 18:03:56.375",0.242,0.008,0.953,2020-02-08 18:03:56.375
"2/8/2020 18:03:56.388",0.238,0.016,0.941,2020-02-08 18:03:56.388
"2/8/2020 18:03:56.400",0.25,0.02,0.938,2020-02-08 18:03:56.400
"2/8/2020 18:03:56.413",0.254,0.02,0.945,2020-02-08 18:03:56.413
"2/8/2020 18:03:56.425",0.262,0.023,0.953,2020-02-08 18:03:56.424
"2/8/2020 18:03:56.438",0.266,0.035,0.965,2020-02-08 18:03:56.437
"2/8/2020 18:03:56.450",0.27,0.051,0.969,2020-02-08 18:03:56.450
"2/8/2020 18:03:56.463",0.27,0.059,0.973,2020-02-08 18:03:56.463
"2/8/2020 18:03:56.475",0.266,0.059,0.977,2020-02-08 18:03:56.474
"2/8/2020 18:03:56.488",0.27,0.055,0.977,2020-02-08 18:03:56.487
"2/8/2020 18:03:56.500",0.262,0.055,0.965,2020-02-08 18:03:56.500
"2/8/2020 18:03:56.513",0.27,0.047,0.957,2020-02-08 18:03:56.513
"2/8/2020 18:03:56.525",0.27,0.035,0.934,2020-02-08 18:03:56.525
"2/8/2020 18:03:56.538",0.27,0.031,0.93,2020-02-08 18:03:56.538
"2/8/2020 18:03:56.550",0.277,0.02,0.941,2020-02-08 18:03:56.549
"2/8/2020 18:03:56.563",0.285,-0.004,0.949,2020-02-08 18:03:56.562
"2/8/2020 18:03:56.575",0.281,-0.035,0.953,2020-02-08 18:03:56.575
"2/8/2020 18:03:56.588",0.273,-0.047,0.945,2020-02-08 18:03:56.588
"2/8/2020 18:03:56.600",0.27,-0.043,0.926,2020-02-08 18:03:56.599
"2/8/2020 18:03:56.613",0.27,-0.031,0.906,2020-02-08 18:03:56.612
"2/8/2020 18:03:56.625",0.273,-0.027,0.91,2020-02-08 18:03:56.625
"2/8/2020 18:03:56.638",0.273,-0.039,0.922,2020-02-08 18:03:56.638
"2/8/2020 18:03:56.650",0.277,-0.063,0.93,2020-02-08 18:03:56.650
"2/8/2020 18:03:56.663",0.289,-0.102,0.953,2020-02-08 18:03:56.663
"2/8/2020 18:03:56.675",0.277,-0.133,0.953,2020-02-08 18:03:56.674
"2/8/2020 18:03:56.688",0.266,-0.148,0.941,2020-02-08 18:03:56.687
"2/8/2020 18:03:56.700",0.25,-0.113,0.93,2020-02-08 18:03:56.700
"2/8/2020 18:03:56.713",0.215,-0.055,0.941,2020-02-08 18:03:56.713
"2/8/2020 18:03:56.725",0.203,-0.074,0.965,2020-02-08 18:03:56.724
"2/8/2020 18:03:56.738",0.176,-0.164,0.957,2020-02-08 18:03:56.737
"2/8/2020 18:03:56.750",0.164,-0.188,0.926,2020-02-08 18:03:56.750
"2/8/2020 18:03:56.763",0.152,-0.176,0.879,2020-02-08 18:03:56.763
"2/8/2020 18:03:56.775",0.129,-0.09,0.824,2020-02-08 18:03:56.775
"2/8/2020 18:03:56.788",0.094,0.066,0.777,2020-02-08 18:03:56.788
"2/8/2020 18:03:56.800",0.082,0.223,0.77,2020-02-08 18:03:56.799
"2/8/2020 18:03:56.813",0.051,0.297,0.785,2020-02-08 18:03:56.812
"2/8/2020 18:03:56.825",-0.008,0.328,0.762,2020-02-08 18:03:56.825
"2/8/2020 18:03:56.838",-0.051,0.422,0.723,2020-02-08 18:03:56.838
"2/8/2020 18:03:56.850",-0.063,0.586,0.652,2020-02-08 18:03:56.849
"2/8/2020 18:03:56.863",-0.027,0.707,0.625,2020-02-08 18:03:56.862
"2/8/2020 18:03:56.875",0.035,0.773,0.633,2020-02-08 18:03:56.875
"2/8/2020 18:03:56.888",0.113,0.867,0.66,2020-02-08 18:03:56.888
"2/8/2020 18:03:56.900",0.223,1.031,0.695,2020-02-08 18:03:56.900
"2/8/2020 18:03:56.913",0.336,1.207,0.746,2020-02-08 18:03:56.913
"2/8/2020 18:03:56.925",0.461,1.426,0.773,2020-02-08 18:03:56.924
"2/8/2020 18:03:56.938",0.664,1.727,0.727,2020-02-08 18:03:56.937
"2/8/2020 18:03:56.950",0.879,2,0.578,2020-02-08 18:03:56.950
"2/8/2020 18:03:56.963",1.031,2.047,0.359,2020-02-08 18:03:56.963
"2/8/2020 18:03:56.975",1.102,1.867,0.156,2020-02-08 18:03:56.974
"2/8/2020 18:03:56.988",1.117,1.684,0.043,2020-02-08 18:03:56.987
"2/8/2020 18:03:57.000",1.121,1.645,0.055,2020-02-08 18:03:57.000
"2/8/2020 18:03:57.013",1.113,1.504,0.113,2020-02-08 18:03:57.013
"2/8/2020 18:03:57.025",1.129,1.309,0.215,2020-02-08 18:03:57.025
"2/8/2020 18:03:57.038",1.168,1.031,0.328,2020-02-08 18:03:57.038
"2/8/2020 18:03:57.050",1.18,0.648,0.453,2020-02-08 18:03:57.049
"2/8/2020 18:03:57.063",1.211,0.316,0.582,2020-02-08 18:03:57.062
"2/8/2020 18:03:57.075",1.172,0.023,0.73,2020-02-08 18:03:57.075
"2/8/2020 18:03:57.088",1.129,-0.203,0.867,2020-02-08 18:03:57.088
"2/8/2020 18:03:57.100",1.059,-0.34,0.969,2020-02-08 18:03:57.099
"2/8/2020 18:03:57.113",0.957,-0.406,1.016,2020-02-08 18:03:57.112
"2/8/2020 18:03:57.125",0.836,-0.398,1.016,2020-02-08 18:03:57.125
"2/8/2020 18:03:57.138",0.73,-0.336,0.949,2020-02-08 18:03:57.138
"2/8/2020 18:03:57.150",0.68,-0.262,0.836,2020-02-08 18:03:57.150
"2/8/2020 18:03:57.163",0.664,-0.191,0.727,2020-02-08 18:03:57.163
"2/8/2020 18:03:57.175",0.656,-0.172,0.625,2020-02-08 18:03:57.174
"2/8/2020 18:03:57.188",0.633,-0.172,0.527,2020-02-08 18:03:57.187
"2/8/2020 18:03:57.200",0.574,-0.152,0.434,2020-02-08 18:03:57.200
"2/8/2020 18:03:57.213",0.504,-0.172,0.34,2020-02-08 18:03:57.213
"2/8/2020 18:03:57.225",0.48,-0.207,0.273,2020-02-08 18:03:57.224
"2/8/2020 18:03:57.238",0.477,-0.27,0.23,2020-02-08 18:03:57.237
"2/8/2020 18:03:57.250",0.5,-0.309,0.203,2020-02-08 18:03:57.250
"2/8/2020 18:03:57.263",0.559,-0.336,0.238,2020-02-08 18:03:57.263
"2/8/2020 18:03:57.275",0.625,-0.383,0.297,2020-02-08 18:03:57.275
"2/8/2020 18:03:57.288",0.664,-0.418,0.316,2020-02-08 18:03:57.288
"2/8/2020 18:03:57.300",0.711,-0.48,0.328,2020-02-08 18:03:57.299
"2/8/2020 18:03:57.313",0.711,-0.504,0.281,2020-02-08 18:03:57.312
"2/8/2020 18:03:57.325",0.754,-0.41,0.215,2020-02-08 18:03:57.325
"2/8/2020 18:03:57.338",0.816,-0.211,0.137,2020-02-08 18:03:57.338
"2/8/2020 18:03:57.350",0.84,0.066,0.09,2020-02-08 18:03:57.349
"2/8/2020 18:03:57.363",0.813,0.355,0.059,2020-02-08 18:03:57.362
"2/8/2020 18:03:57.375",0.664,0.484,0.047,2020-02-08 18:03:57.375
"2/8/2020 18:03:57.388",0.477,0.332,0.191,2020-02-08 18:03:57.388
"2/8/2020 18:03:57.400",0.383,0.195,0.473,2020-02-08 18:03:57.400
"2/8/2020 18:03:57.413",0.309,0.301,0.715,2020-02-08 18:03:57.413
"2/8/2020 18:03:57.425",0.219,0.336,0.844,2020-02-08 18:03:57.424
"2/8/2020 18:03:57.438",0.074,0.352,0.918,2020-02-08 18:03:57.437
"2/8/2020 18:03:57.450",-0.043,0.418,0.906,2020-02-08 18:03:57.450
"2/8/2020 18:03:57.463",-0.195,0.434,0.879,2020-02-08 18:03:57.463
"2/8/2020 18:03:57.475",-0.348,0.367,0.82,2020-02-08 18:03:57.474
"2/8/2020 18:03:57.488",-0.449,0.289,0.77,2020-02-08 18:03:57.487
"2/8/2020 18:03:57.500",-0.496,0.324,0.793,2020-02-08 18:03:57.500
"2/8/2020 18:03:57.513",-0.492,0.332,0.902,2020-02-08 18:03:57.513
"2/8/2020 18:03:57.525",-0.477,0.301,1.047,2020-02-08 18:03:57.525
"2/8/2020 18:03:57.538",-0.48,0.293,1.188,2020-02-08 18:03:57.538
"2/8/2020 18:03:57.550",-0.492,0.25,1.305,2020-02-08 18:03:57.549
"2/8/2020 18:03:57.563",-0.5,0.227,1.355,2020-02-08 18:03:57.562
"2/8/2020 18:03:57.575",-0.484,0.195,1.387,2020-02-08 18:03:57.575
"2/8/2020 18:03:57.588",-0.465,0.152,1.402,2020-02-08 18:03:57.588
"2/8/2020 18:03:57.600",-0.438,0.082,1.445,2020-02-08 18:03:57.599
"2/8/2020 18:03:57.613",-0.402,0.082,1.508,2020-02-08 18:03:57.612
"2/8/2020 18:03:57.625",-0.371,0.129,1.555,2020-02-08 18:03:57.625
"2/8/2020 18:03:57.638",-0.352,0.215,1.543,2020-02-08 18:03:57.638
"2/8/2020 18:03:57.650",-0.355,0.223,1.48,2020-02-08 18:03:57.650
"2/8/2020 18:03:57.663",-0.34,0.191,1.449,2020-02-08 18:03:57.663
"2/8/2020 18:03:57.675",-0.313,0.191,1.445,2020-02-08 18:03:57.674
"2/8/2020 18:03:57.688",-0.301,0.254,1.445,2020-02-08 18:03:57.687
"2/8/2020 18:03:57.700",-0.301,0.293,1.469,2020-02-08 18:03:57.700
"2/8/2020 18:03:57.713",-0.313,0.324,1.488,2020-02-08 18:03:57.713
"2/8/2020 18:03:57.725",-0.297,0.348,1.516,2020-02-08 18:03:57.724
"2/8/2020 18:03:57.738",-0.262,0.453,1.52,2020-02-08 18:03:57.737
"2/8/2020 18:03:57.750",-0.215,0.496,1.59,2020-02-08 18:03:57.750
"2/8/2020 18:03:57.763",-0.098,0.531,1.773,2020-02-08 18:03:57.763
"2/8/2020 18:03:57.775",-0.031,0.543,2.004,2020-02-08 18:03:57.775
"2/8/2020 18:03:57.788",0.02,0.555,2.191,2020-02-08 18:03:57.788
"2/8/2020 18:03:57.800",0.078,0.605,2.16,2020-02-08 18:03:57.799
"2/8/2020 18:03:57.813",0.176,0.527,1.902,2020-02-08 18:03:57.812
"2/8/2020 18:03:57.825",0.195,0.316,1.34,2020-02-08 18:03:57.825
"2/8/2020 18:03:57.838",0.141,0.145,0.52,2020-02-08 18:03:57.838
"2/8/2020 18:03:57.850",0.051,0,-0.359,2020-02-08 18:03:57.849
"2/8/2020 18:03:57.863",-0.258,-0.57,-1.004,2020-02-08 18:03:57.862
"2/8/2020 18:03:57.875",-0.246,-1.391,-1.547,2020-02-08 18:03:57.875
"2/8/2020 18:03:57.888",-0.059,-1.613,-2.402,2020-02-08 18:03:57.888
"2/8/2020 18:03:57.900",0.254,-0.465,-3.066,2020-02-08 18:03:57.900
"2/8/2020 18:03:57.913",0.438,0.914,-3.082,2020-02-08 18:03:57.913
"2/8/2020 18:03:57.925",0.309,1.332,-2.469,2020-02-08 18:03:57.924
"2/8/2020 18:03:57.938",0.027,0.676,-1.707,2020-02-08 18:03:57.937
"2/8/2020 18:03:57.950",-0.07,-0.34,-1.07,2020-02-08 18:03:57.950
"2/8/2020 18:03:57.963",-0.023,-0.941,-0.656,2020-02-08 18:03:57.963
"2/8/2020 18:03:57.975",0.02,-0.883,-0.695,2020-02-08 18:03:57.974
"2/8/2020 18:03:57.988",-0.02,-0.723,-1.008,2020-02-08 18:03:57.987
"2/8/2020 18:03:58.000",-0.02,-0.719,-1.281,2020-02-08 18:03:58.000
"2/8/2020 18:03:58.013",0.113,-0.695,-1.363,2020-02-08 18:03:58.013
"2/8/2020 18:03:58.025",0.227,-0.645,-1.379,2020-02-08 18:03:58.025
"2/8/2020 18:03:58.038",0.289,-0.5,-1.461,2020-02-08 18:03:58.038
"2/8/2020 18:03:58.050",0.391,-0.23,-1.586,2020-02-08 18:03:58.049
"2/8/2020 18:03:58.063",0.52,0.059,-1.785,2020-02-08 18:03:58.062
"2/8/2020 18:03:58.075",0.605,0.223,-1.969,2020-02-08 18:03:58.075
"2/8/2020 18:03:58.088",0.547,0.34,-2.105,2020-02-08 18:03:58.088
"2/8/2020 18:03:58.100",0.383,0.52,-2.191,2020-02-08 18:03:58.099
"2/8/2020 18:03:58.113",0.129,0.82,-2.191,2020-02-08 18:03:58.112
"2/8/2020 18:03:58.125",-0.125,1.043,-2.141,2020-02-08 18:03:58.125
"2/8/2020 18:03:58.138",-0.184,1.176,-2.137,2020-02-08 18:03:58.138
"2/8/2020 18:03:58.150",-0.191,1.293,-2.156,2020-02-08 18:03:58.150
"2/8/2020 18:03:58.163",-0.223,1.371,-2.148,2020-02-08 18:03:58.163
"2/8/2020 18:03:58.175",-0.172,1.422,-2.094,2020-02-08 18:03:58.174
"2/8/2020 18:03:58.188",-0.039,1.484,-1.984,2020-02-08 18:03:58.187
"2/8/2020 18:03:58.200",0.109,1.527,-1.879,2020-02-08 18:03:58.200
"2/8/2020 18:03:58.213",0.242,1.5,-1.828,2020-02-08 18:03:58.213
"2/8/2020 18:03:58.225",0.355,1.465,-1.832,2020-02-08 18:03:58.224
"2/8/2020 18:03:58.238",0.516,1.516,-1.727,2020-02-08 18:03:58.237
"2/8/2020 18:03:58.250",0.68,1.547,-1.453,2020-02-08 18:03:58.250
"2/8/2020 18:03:58.263",0.75,1.512,-1.125,2020-02-08 18:03:58.263
"2/8/2020 18:03:58.275",0.73,1.488,-0.84,2020-02-08 18:03:58.275
"2/8/2020 18:03:58.288",0.73,1.508,-0.613,2020-02-08 18:03:58.288
"2/8/2020 18:03:58.300",0.832,1.512,-0.367,2020-02-08 18:03:58.299
"2/8/2020 18:03:58.313",0.941,1.496,-0.137,2020-02-08 18:03:58.312
"2/8/2020 18:03:58.325",0.988,1.5,0.102,2020-02-08 18:03:58.325
"2/8/2020 18:03:58.338",1.02,1.5,0.25,2020-02-08 18:03:58.338
"2/8/2020 18:03:58.350",1.066,1.57,0.313,2020-02-08 18:03:58.349
"2/8/2020 18:03:58.363",1.051,1.469,0.355,2020-02-08 18:03:58.362
"2/8/2020 18:03:58.375",0.996,1.383,0.293,2020-02-08 18:03:58.375
"2/8/2020 18:03:58.388",0.938,1.297,0.152,2020-02-08 18:03:58.388
"2/8/2020 18:03:58.400",0.836,1.148,0.039,2020-02-08 18:03:58.400
"2/8/2020 18:03:58.413",0.742,1.117,-0.117,2020-02-08 18:03:58.413
"2/8/2020 18:03:58.425",0.711,1.109,-0.285,2020-02-08 18:03:58.424
"2/8/2020 18:03:58.438",0.699,1.035,-0.363,2020-02-08 18:03:58.437
"2/8/2020 18:03:58.450",0.758,1.113,-0.469,2020-02-08 18:03:58.450
"2/8/2020 18:03:58.463",0.828,1.211,-0.504,2020-02-08 18:03:58.463
"2/8/2020 18:03:58.475",0.871,1.309,-0.434,2020-02-08 18:03:58.474
"2/8/2020 18:03:58.488",0.938,1.438,-0.273,2020-02-08 18:03:58.487
"2/8/2020 18:03:58.500",0.961,1.504,-0.168,2020-02-08 18:03:58.500
"2/8/2020 18:03:58.513",0.957,1.406,-0.113,2020-02-08 18:03:58.513
"2/8/2020 18:03:58.525",0.93,1.336,-0.008,2020-02-08 18:03:58.525
"2/8/2020 18:03:58.538",0.883,1.285,0.137,2020-02-08 18:03:58.538
"2/8/2020 18:03:58.550",0.797,1.227,0.141,2020-02-08 18:03:58.549
"2/8/2020 18:03:58.563",0.77,1.078,0.156,2020-02-08 18:03:58.562
"2/8/2020 18:03:58.575",0.68,0.934,0.184,2020-02-08 18:03:58.575
"2/8/2020 18:03:58.588",0.559,0.797,0.172,2020-02-08 18:03:58.588
"2/8/2020 18:03:58.600",0.422,0.676,0.172,2020-02-08 18:03:58.599
"2/8/2020 18:03:58.613",0.313,0.637,0.262,2020-02-08 18:03:58.612
"2/8/2020 18:03:58.625",0.191,0.59,0.309,2020-02-08 18:03:58.625
"2/8/2020 18:03:58.638",0.031,0.586,0.203,2020-02-08 18:03:58.638
"2/8/2020 18:03:58.650",-0.141,0.727,0.086,2020-02-08 18:03:58.650
"2/8/2020 18:03:58.663",-0.281,0.84,0.215,2020-02-08 18:03:58.663
"2/8/2020 18:03:58.675",-0.328,0.883,0.461,2020-02-08 18:03:58.674
"2/8/2020 18:03:58.688",-0.344,0.965,0.566,2020-02-08 18:03:58.687
"2/8/2020 18:03:58.700",-0.344,0.926,0.523,2020-02-08 18:03:58.700
"2/8/2020 18:03:58.713",-0.383,0.863,0.453,2020-02-08 18:03:58.713
"2/8/2020 18:03:58.725",-0.359,0.848,0.434,2020-02-08 18:03:58.724
"2/8/2020 18:03:58.738",-0.352,0.828,0.395,2020-02-08 18:03:58.737
"2/8/2020 18:03:58.750",-0.445,0.961,0.371,2020-02-08 18:03:58.750
"2/8/2020 18:03:58.763",-0.582,0.973,0.281,2020-02-08 18:03:58.763
"2/8/2020 18:03:58.775",-0.641,0.832,0.07,2020-02-08 18:03:58.775
"2/8/2020 18:03:58.788",-0.5,0.711,-0.254,2020-02-08 18:03:58.788
"2/8/2020 18:03:58.800",-0.176,0.641,-0.523,2020-02-08 18:03:58.799
"2/8/2020 18:03:58.813",0.082,0.488,-0.73,2020-02-08 18:03:58.812
"2/8/2020 18:03:58.825",-0.027,0.176,-0.977,2020-02-08 18:03:58.825
"2/8/2020 18:03:58.838",-0.246,-0.117,-1.219,2020-02-08 18:03:58.838
"2/8/2020 18:03:58.850",-0.48,-0.191,-1.449,2020-02-08 18:03:58.849
"2/8/2020 18:03:58.863",-0.449,-0.102,-1.563,2020-02-08 18:03:58.862
"2/8/2020 18:03:58.875",-0.25,0.168,-1.613,2020-02-08 18:03:58.875
"2/8/2020 18:03:58.888",-0.027,0.699,-1.637,2020-02-08 18:03:58.888
"2/8/2020 18:03:58.900",0.016,1.063,-1.656,2020-02-08 18:03:58.900
"2/8/2020 18:03:58.913",0.027,1.211,-1.609,2020-02-08 18:03:58.913
"2/8/2020 18:03:58.925",0.043,1.172,-1.551,2020-02-08 18:03:58.924
"2/8/2020 18:03:58.938",0.156,1.004,-1.516,2020-02-08 18:03:58.937
"2/8/2020 18:03:58.950",0.32,0.941,-1.43,2020-02-08 18:03:58.950
"2/8/2020 18:03:58.963",0.453,1.043,-1.359,2020-02-08 18:03:58.963
"2/8/2020 18:03:58.975",0.629,1.324,-1.34,2020-02-08 18:03:58.974
"2/8/2020 18:03:58.988",0.758,1.703,-1.301,2020-02-08 18:03:58.987
"2/8/2020 18:03:59.000",0.727,1.906,-1.188,2020-02-08 18:03:59.000
"2/8/2020 18:03:59.013",0.633,1.746,-1.066,2020-02-08 18:03:59.013
"2/8/2020 18:03:59.025",0.613,1.398,-0.941,2020-02-08 18:03:59.025
"2/8/2020 18:03:59.038",0.695,1.023,-0.824,2020-02-08 18:03:59.038
"2/8/2020 18:03:59.050",0.852,0.898,-0.738,2020-02-08 18:03:59.049
"2/8/2020 18:03:59.063",1.004,0.961,-0.711,2020-02-08 18:03:59.062
"2/8/2020 18:03:59.075",1.043,1.086,-0.688,2020-02-08 18:03:59.075
"2/8/2020 18:03:59.088",1.059,1.063,-0.609,2020-02-08 18:03:59.088
"2/8/2020 18:03:59.100",1.051,0.828,-0.57,2020-02-08 18:03:59.099
"2/8/2020 18:03:59.113",1.051,0.453,-0.477,2020-02-08 18:03:59.112
"2/8/2020 18:03:59.125",1.113,-0.121,-0.32,2020-02-08 18:03:59.125
"2/8/2020 18:03:59.138",1.301,-0.738,-0.125,2020-02-08 18:03:59.138
"2/8/2020 18:03:59.150",1.512,-1.313,0.063,2020-02-08 18:03:59.150
"2/8/2020 18:03:59.163",1.664,-1.465,0.137,2020-02-08 18:03:59.163
"2/8/2020 18:03:59.175",1.777,-1.484,0.227,2020-02-08 18:03:59.174
"2/8/2020 18:03:59.188",1.773,-1.484,0.324,2020-02-08 18:03:59.187
"2/8/2020 18:03:59.200",1.805,-1.324,0.457,2020-02-08 18:03:59.200
"2/8/2020 18:03:59.213",1.93,-1.23,0.621,2020-02-08 18:03:59.213
"2/8/2020 18:03:59.225",1.863,-1.063,0.598,2020-02-08 18:03:59.224
"2/8/2020 18:03:59.238",1.691,-0.777,0.359,2020-02-08 18:03:59.237
"2/8/2020 18:03:59.250",1.504,-0.723,0.031,2020-02-08 18:03:59.250
"2/8/2020 18:03:59.263",1.199,-0.84,-0.328,2020-02-08 18:03:59.263
"2/8/2020 18:03:59.275",0.906,-0.961,-0.617,2020-02-08 18:03:59.275
"2/8/2020 18:03:59.288",0.75,-0.961,-0.758,2020-02-08 18:03:59.288
"2/8/2020 18:03:59.300",0.785,-0.637,-0.762,2020-02-08 18:03:59.299
"2/8/2020 18:03:59.313",1.504,-0.133,-0.355,2020-02-08 18:03:59.312
"2/8/2020 18:03:59.325",2.156,0.457,-0.195,2020-02-08 18:03:59.325
"2/8/2020 18:03:59.338",1.543,0.5,0.359,2020-02-08 18:03:59.338
"2/8/2020 18:03:59.350",1.203,0.027,1.352,2020-02-08 18:03:59.349
"2/8/2020 18:03:59.363",1.352,-0.195,1.98,2020-02-08 18:03:59.362
"2/8/2020 18:03:59.375",1.434,-0.176,1.988,2020-02-08 18:03:59.375
"2/8/2020 18:03:59.388",1.414,0.074,1.809,2020-02-08 18:03:59.388
"2/8/2020 18:03:59.400",1.582,0.598,1.605,2020-02-08 18:03:59.400
"2/8/2020 18:03:59.413",1.559,1.086,1.336,2020-02-08 18:03:59.413
"2/8/2020 18:03:59.425",1.359,1.445,1.152,2020-02-08 18:03:59.424
"2/8/2020 18:03:59.438",1.164,1.613,0.988,2020-02-08 18:03:59.437
"2/8/2020 18:03:59.450",0.957,1.84,0.629,2020-02-08 18:03:59.450
"2/8/2020 18:03:59.463",0.637,2.023,0.168,2020-02-08 18:03:59.463
"2/8/2020 18:03:59.475",0.434,1.957,-0.23,2020-02-08 18:03:59.474
"2/8/2020 18:03:59.488",0.297,1.668,-0.523,2020-02-08 18:03:59.487
"2/8/2020 18:03:59.500",0.199,1.262,-0.707,2020-02-08 18:03:59.500
"2/8/2020 18:03:59.513",0.234,0.891,-0.875,2020-02-08 18:03:59.513
"2/8/2020 18:03:59.525",0.305,0.555,-1.039,2020-02-08 18:03:59.525
"2/8/2020 18:03:59.538",0.352,0.262,-1.164,2020-02-08 18:03:59.538
"2/8/2020 18:03:59.550",0.402,0.043,-1.281,2020-02-08 18:03:59.549
"2/8/2020 18:03:59.563",0.469,-0.035,-1.48,2020-02-08 18:03:59.562
"2/8/2020 18:03:59.575",0.574,0.047,-1.719,2020-02-08 18:03:59.575
"2/8/2020 18:03:59.588",0.551,0.152,-1.789,2020-02-08 18:03:59.588
"2/8/2020 18:03:59.600",0.48,0.102,-1.746,2020-02-08 18:03:59.599
"2/8/2020 18:03:59.613",0.461,-0.098,-1.719,2020-02-08 18:03:59.612
"2/8/2020 18:03:59.625",0.383,-0.27,-1.707,2020-02-08 18:03:59.625
"2/8/2020 18:03:59.638",0.227,-0.336,-1.648,2020-02-08 18:03:59.638
"2/8/2020 18:03:59.650",0.094,-0.34,-1.5,2020-02-08 18:03:59.650
"2/8/2020 18:03:59.663",-0.016,-0.336,-1.336,2020-02-08 18:03:59.663
"2/8/2020 18:03:59.675",-0.09,-0.395,-1.207,2020-02-08 18:03:59.674
"2/8/2020 18:03:59.688",-0.176,-0.32,-1.094,2020-02-08 18:03:59.687
"2/8/2020 18:03:59.700",-0.367,-0.371,-1.055,2020-02-08 18:03:59.700
"2/8/2020 18:03:59.713",-0.449,-0.383,-1.02,2020-02-08 18:03:59.713
"2/8/2020 18:03:59.725",-0.516,-0.391,-0.973,2020-02-08 18:03:59.724
"2/8/2020 18:03:59.738",-0.543,-0.395,-0.906,2020-02-08 18:03:59.737
"2/8/2020 18:03:59.750",-0.594,-0.469,-0.809,2020-02-08 18:03:59.750
"2/8/2020 18:03:59.763",-0.719,-0.57,-0.715,2020-02-08 18:03:59.763
"2/8/2020 18:03:59.775",-0.848,-0.613,-0.637,2020-02-08 18:03:59.775
"2/8/2020 18:03:59.788",-0.973,-0.504,-0.57,2020-02-08 18:03:59.788
"2/8/2020 18:03:59.800",-1.043,-0.328,-0.492,2020-02-08 18:03:59.799
"2/8/2020 18:03:59.813",-1.09,-0.164,-0.383,2020-02-08 18:03:59.812
"2/8/2020 18:03:59.825",-1.098,-0.059,-0.281,2020-02-08 18:03:59.825
"2/8/2020 18:03:59.838",-1.094,-0.027,-0.207,2020-02-08 18:03:59.838
"2/8/2020 18:03:59.850",-1.063,0.008,-0.145,2020-02-08 18:03:59.849
"2/8/2020 18:03:59.863",-0.992,0.031,-0.027,2020-02-08 18:03:59.862
"2/8/2020 18:03:59.875",-0.91,0.074,0.168,2020-02-08 18:03:59.875
"2/8/2020 18:03:59.888",-0.813,0.137,0.375,2020-02-08 18:03:59.888
"2/8/2020 18:03:59.900",-0.695,0.184,0.508,2020-02-08 18:03:59.900
"2/8/2020 18:03:59.913",-0.57,0.246,0.484,2020-02-08 18:03:59.913
"2/8/2020 18:03:59.925",-0.504,0.223,0.469,2020-02-08 18:03:59.924
"2/8/2020 18:03:59.938",-0.422,0.117,0.547,2020-02-08 18:03:59.937
"2/8/2020 18:03:59.950",-0.504,-0.035,0.625,2020-02-08 18:03:59.950
"2/8/2020 18:03:59.963",-0.551,-0.238,0.676,2020-02-08 18:03:59.963
"2/8/2020 18:03:59.975",-0.559,-0.418,0.707,2020-02-08 18:03:59.974
"2/8/2020 18:03:59.988",-0.543,-0.574,0.66,2020-02-08 18:03:59.987
"2/8/2020 18:04:00.000",-0.566,-0.945,0.617,2020-02-08 18:04:00.000
"2/8/2020 18:04:00.013",-0.586,-1.309,0.523,2020-02-08 18:04:00.013
"2/8/2020 18:04:00.025",-0.586,-1.563,0.367,2020-02-08 18:04:00.025
"2/8/2020 18:04:00.038",-0.574,-1.68,0.164,2020-02-08 18:04:00.038
"2/8/2020 18:04:00.050",-0.539,-1.801,-0.051,2020-02-08 18:04:00.049
"2/8/2020 18:04:00.063",-0.516,-2.047,-0.238,2020-02-08 18:04:00.062
"2/8/2020 18:04:00.075",-0.465,-2.387,-0.277,2020-02-08 18:04:00.075
"2/8/2020 18:04:00.088",-0.449,-2.75,-0.23,2020-02-08 18:04:00.088
"2/8/2020 18:04:00.100",-0.254,-2.848,0.055,2020-02-08 18:04:00.099
"2/8/2020 18:04:00.113",0.656,-2.684,1.121,2020-02-08 18:04:00.112
"2/8/2020 18:04:00.125",1.563,-1.879,1.789,2020-02-08 18:04:00.125
"2/8/2020 18:04:00.138",1.086,-0.598,1.688,2020-02-08 18:04:00.138
"2/8/2020 18:04:00.150",0.203,0.148,1.402,2020-02-08 18:04:00.150
"2/8/2020 18:04:00.163",-0.199,0.523,1.172,2020-02-08 18:04:00.163
"2/8/2020 18:04:00.175",-0.434,0.223,1.094,2020-02-08 18:04:00.174
"2/8/2020 18:04:00.188",-0.453,-0.324,0.98,2020-02-08 18:04:00.187
"2/8/2020 18:04:00.200",-0.426,-0.602,0.688,2020-02-08 18:04:00.200
"2/8/2020 18:04:00.213",-0.391,-0.582,0.484,2020-02-08 18:04:00.213
"2/8/2020 18:04:00.225",-0.379,-0.512,0.457,2020-02-08 18:04:00.224
"2/8/2020 18:04:00.238",-0.438,-0.434,0.512,2020-02-08 18:04:00.237
"2/8/2020 18:04:00.250",-0.531,-0.398,0.59,2020-02-08 18:04:00.250
"2/8/2020 18:04:00.263",-0.629,-0.367,0.621,2020-02-08 18:04:00.263
"2/8/2020 18:04:00.275",-0.711,-0.316,0.578,2020-02-08 18:04:00.275
"2/8/2020 18:04:00.288",-0.766,-0.277,0.477,2020-02-08 18:04:00.288
"2/8/2020 18:04:00.300",-0.785,-0.254,0.355,2020-02-08 18:04:00.299
"2/8/2020 18:04:00.313",-0.793,-0.25,0.203,2020-02-08 18:04:00.312
"2/8/2020 18:04:00.325",-0.793,-0.281,0.105,2020-02-08 18:04:00.325
"2/8/2020 18:04:00.338",-0.789,-0.371,0.039,2020-02-08 18:04:00.338
"2/8/2020 18:04:00.350",-0.789,-0.414,0.008,2020-02-08 18:04:00.349
"2/8/2020 18:04:00.363",-0.781,-0.461,-0.012,2020-02-08 18:04:00.362
"2/8/2020 18:04:00.375",-0.75,-0.504,-0.02,2020-02-08 18:04:00.375
"2/8/2020 18:04:00.388",-0.715,-0.523,-0.027,2020-02-08 18:04:00.388
"2/8/2020 18:04:00.400",-0.699,-0.535,-0.004,2020-02-08 18:04:00.400
"2/8/2020 18:04:00.413",-0.699,-0.563,0.043,2020-02-08 18:04:00.413
"2/8/2020 18:04:00.425",-0.719,-0.574,0.098,2020-02-08 18:04:00.424
"2/8/2020 18:04:00.438",-0.742,-0.598,0.133,2020-02-08 18:04:00.437
"2/8/2020 18:04:00.450",-0.77,-0.598,0.195,2020-02-08 18:04:00.450
"2/8/2020 18:04:00.463",-0.766,-0.574,0.254,2020-02-08 18:04:00.463
"2/8/2020 18:04:00.475",-0.77,-0.551,0.336,2020-02-08 18:04:00.474
"2/8/2020 18:04:00.488",-0.773,-0.559,0.402,2020-02-08 18:04:00.487
"2/8/2020 18:04:00.500",-0.785,-0.566,0.48,2020-02-08 18:04:00.500
"2/8/2020 18:04:00.513",-0.766,-0.598,0.559,2020-02-08 18:04:00.513
"2/8/2020 18:04:00.525",-0.738,-0.641,0.625,2020-02-08 18:04:00.525
"2/8/2020 18:04:00.538",-0.691,-0.672,0.715,2020-02-08 18:04:00.538
"2/8/2020 18:04:00.550",-0.617,-0.672,0.766,2020-02-08 18:04:00.549
"2/8/2020 18:04:00.563",-0.523,-0.621,0.805,2020-02-08 18:04:00.562
"2/8/2020 18:04:00.575",-0.422,-0.512,0.781,2020-02-08 18:04:00.575
"2/8/2020 18:04:00.588",-0.352,-0.371,0.66,2020-02-08 18:04:00.588
"2/8/2020 18:04:00.600",-0.313,-0.215,0.473,2020-02-08 18:04:00.599
"2/8/2020 18:04:00.613",-0.289,-0.031,0.289,2020-02-08 18:04:00.612
"2/8/2020 18:04:00.625",-0.266,0.121,0.219,2020-02-08 18:04:00.625
"2/8/2020 18:04:00.638",-0.262,0.133,0.172,2020-02-08 18:04:00.638
"2/8/2020 18:04:00.650",-0.238,0.176,0.07,2020-02-08 18:04:00.650
"2/8/2020 18:04:00.663",-0.211,0.199,-0.09,2020-02-08 18:04:00.663
"2/8/2020 18:04:00.675",-0.195,0.188,-0.273,2020-02-08 18:04:00.674
"2/8/2020 18:04:00.688",-0.156,0.145,-0.379,2020-02-08 18:04:00.687
"2/8/2020 18:04:00.700",-0.137,0.055,-0.461,2020-02-08 18:04:00.700
"2/8/2020 18:04:00.713",-0.125,-0.004,-0.57,2020-02-08 18:04:00.713
"2/8/2020 18:04:00.725",-0.156,0.027,-0.617,2020-02-08 18:04:00.724
"2/8/2020 18:04:00.738",-0.203,-0.098,-0.59,2020-02-08 18:04:00.737
"2/8/2020 18:04:00.750",-0.234,-0.16,-0.621,2020-02-08 18:04:00.750
"2/8/2020 18:04:00.763",-0.301,-0.152,-0.629,2020-02-08 18:04:00.763
"2/8/2020 18:04:00.775",-0.434,-0.234,-0.598,2020-02-08 18:04:00.775
"2/8/2020 18:04:00.788",-0.641,-0.316,-0.555,2020-02-08 18:04:00.788
"2/8/2020 18:04:00.800",-0.926,-0.473,-0.484,2020-02-08 18:04:00.799
"2/8/2020 18:04:00.813",-1.203,-0.59,-0.438,2020-02-08 18:04:00.812
"2/8/2020 18:04:00.825",-1.461,-0.609,-0.414,2020-02-08 18:04:00.825
"2/8/2020 18:04:00.838",-1.699,-0.492,-0.34,2020-02-08 18:04:00.838
"2/8/2020 18:04:00.850",-1.922,-0.488,-0.199,2020-02-08 18:04:00.849
"2/8/2020 18:04:00.863",-2.102,-0.48,-0.133,2020-02-08 18:04:00.862
"2/8/2020 18:04:00.875",-2.254,-0.418,-0.172,2020-02-08 18:04:00.875
"2/8/2020 18:04:00.888",-2.375,-0.234,-0.316,2020-02-08 18:04:00.888
"2/8/2020 18:04:00.900",-2.449,-0.008,-0.441,2020-02-08 18:04:00.900
"2/8/2020 18:04:00.913",-2.457,0.191,-0.551,2020-02-08 18:04:00.913
"2/8/2020 18:04:00.925",-2.387,0.41,-0.723,2020-02-08 18:04:00.924
"2/8/2020 18:04:00.938",-2.246,0.645,-0.945,2020-02-08 18:04:00.937
"2/8/2020 18:04:00.950",-2.074,0.805,-1.215,2020-02-08 18:04:00.950
"2/8/2020 18:04:00.963",-1.91,0.832,-1.477,2020-02-08 18:04:00.963
"2/8/2020 18:04:00.975",-1.766,0.746,-1.66,2020-02-08 18:04:00.974
"2/8/2020 18:04:00.988",-1.613,0.711,-1.75,2020-02-08 18:04:00.987
"2/8/2020 18:04:01.000",-1.508,0.77,-1.711,2020-02-08 18:04:01.000
"2/8/2020 18:04:01.013",-1.391,0.898,-1.676,2020-02-08 18:04:01.013
"2/8/2020 18:04:01.025",-1.281,1.047,-1.625,2020-02-08 18:04:01.025
"2/8/2020 18:04:01.038",-1.199,1.188,-1.578,2020-02-08 18:04:01.038
"2/8/2020 18:04:01.050",-1.129,1.172,-1.473,2020-02-08 18:04:01.049
"2/8/2020 18:04:01.063",-1.039,1.063,-1.285,2020-02-08 18:04:01.062
"2/8/2020 18:04:01.075",-0.926,0.996,-1.16,2020-02-08 18:04:01.075
"2/8/2020 18:04:01.088",-0.777,1.031,-1.074,2020-02-08 18:04:01.088
"2/8/2020 18:04:01.100",-0.617,1.109,-1.066,2020-02-08 18:04:01.099
"2/8/2020 18:04:01.113",-0.496,1.23,-1.211,2020-02-08 18:04:01.112
"2/8/2020 18:04:01.125",-0.426,1.699,-1.184,2020-02-08 18:04:01.125
"2/8/2020 18:04:01.138",-0.348,2.262,-0.895,2020-02-08 18:04:01.138
"2/8/2020 18:04:01.150",-0.203,2.309,-0.461,2020-02-08 18:04:01.150
"2/8/2020 18:04:01.163",-0.035,1.988,-0.082,2020-02-08 18:04:01.163
"2/8/2020 18:04:01.175",0.074,1.758,0.199,2020-02-08 18:04:01.174
"2/8/2020 18:04:01.188",0.098,1.699,0.426,2020-02-08 18:04:01.187
"2/8/2020 18:04:01.200",0.121,1.668,0.613,2020-02-08 18:04:01.200
"2/8/2020 18:04:01.213",0.172,1.719,0.801,2020-02-08 18:04:01.213
"2/8/2020 18:04:01.225",0.27,1.75,0.875,2020-02-08 18:04:01.224
"2/8/2020 18:04:01.238",0.363,1.633,0.813,2020-02-08 18:04:01.237
"2/8/2020 18:04:01.250",0.516,1.449,0.715,2020-02-08 18:04:01.250
"2/8/2020 18:04:01.263",0.746,1.367,0.609,2020-02-08 18:04:01.263
"2/8/2020 18:04:01.275",0.855,1.371,0.449,2020-02-08 18:04:01.275
"2/8/2020 18:04:01.288",0.938,1.391,0.277,2020-02-08 18:04:01.288
"2/8/2020 18:04:01.300",0.898,1.383,0.066,2020-02-08 18:04:01.299
"2/8/2020 18:04:01.313",0.77,1.137,-0.027,2020-02-08 18:04:01.312
"2/8/2020 18:04:01.325",0.605,0.648,-0.031,2020-02-08 18:04:01.325
"2/8/2020 18:04:01.338",0.477,0.043,-0.047,2020-02-08 18:04:01.338
"2/8/2020 18:04:01.350",0.336,-0.477,-0.258,2020-02-08 18:04:01.349
"2/8/2020 18:04:01.363",0.211,-0.965,-0.527,2020-02-08 18:04:01.362
"2/8/2020 18:04:01.375",0.352,-1.672,-0.762,2020-02-08 18:04:01.375
"2/8/2020 18:04:01.388",0.656,-2.297,-0.988,2020-02-08 18:04:01.388
"2/8/2020 18:04:01.400",0.891,-2.789,-1.129,2020-02-08 18:04:01.400
"2/8/2020 18:04:01.413",1.207,-3.363,-0.992,2020-02-08 18:04:01.413
"2/8/2020 18:04:01.425",1.664,-3.672,-0.664,2020-02-08 18:04:01.424
"2/8/2020 18:04:01.438",2.273,-3.355,-0.074,2020-02-08 18:04:01.437
"2/8/2020 18:04:01.450",2.977,-2.559,0.543,2020-02-08 18:04:01.450
"2/8/2020 18:04:01.463",2.734,-1.402,0.895,2020-02-08 18:04:01.463
"2/8/2020 18:04:01.475",2.121,-0.383,1.102,2020-02-08 18:04:01.474
"2/8/2020 18:04:01.488",1.441,0.398,1.066,2020-02-08 18:04:01.487
"2/8/2020 18:04:01.500",0.953,0.465,0.902,2020-02-08 18:04:01.500
"2/8/2020 18:04:01.513",0.676,0.254,0.727,2020-02-08 18:04:01.513
"2/8/2020 18:04:01.525",0.559,0.188,0.496,2020-02-08 18:04:01.525
"2/8/2020 18:04:01.538",0.469,0.168,0.344,2020-02-08 18:04:01.538
"2/8/2020 18:04:01.550",0.344,0.164,0.266,2020-02-08 18:04:01.549
"2/8/2020 18:04:01.563",0.297,0.164,0.266,2020-02-08 18:04:01.562
"2/8/2020 18:04:01.575",0.141,0.113,0.156,2020-02-08 18:04:01.575
"2/8/2020 18:04:01.588",0.043,-0.145,0.195,2020-02-08 18:04:01.588
"2/8/2020 18:04:01.600",-0.047,-0.379,0.129,2020-02-08 18:04:01.599
"2/8/2020 18:04:01.613",-0.063,-0.336,-0.02,2020-02-08 18:04:01.612
"2/8/2020 18:04:01.625",-0.039,-0.469,-0.082,2020-02-08 18:04:01.625
"2/8/2020 18:04:01.638",-0.016,-0.73,-0.078,2020-02-08 18:04:01.638
"2/8/2020 18:04:01.650",0.051,-0.852,-0.074,2020-02-08 18:04:01.650
"2/8/2020 18:04:01.663",0.133,-0.875,-0.043,2020-02-08 18:04:01.663
"2/8/2020 18:04:01.675",0.199,-0.914,0.051,2020-02-08 18:04:01.674
"2/8/2020 18:04:01.688",0.277,-0.934,0.148,2020-02-08 18:04:01.687
"2/8/2020 18:04:01.700",0.387,-0.859,0.25,2020-02-08 18:04:01.700
"2/8/2020 18:04:01.713",0.477,-0.77,0.305,2020-02-08 18:04:01.713
"2/8/2020 18:04:01.725",0.535,-0.676,0.34,2020-02-08 18:04:01.724
"2/8/2020 18:04:01.738",0.559,-0.559,0.375,2020-02-08 18:04:01.737
"2/8/2020 18:04:01.750",0.547,-0.461,0.438,2020-02-08 18:04:01.750
"2/8/2020 18:04:01.763",0.516,-0.371,0.508,2020-02-08 18:04:01.763
"2/8/2020 18:04:01.775",0.457,-0.293,0.523,2020-02-08 18:04:01.775
"2/8/2020 18:04:01.788",0.352,-0.211,0.5,2020-02-08 18:04:01.788
"2/8/2020 18:04:01.800",0.184,-0.094,0.41,2020-02-08 18:04:01.799
"2/8/2020 18:04:01.813",0.02,0.004,0.32,2020-02-08 18:04:01.812
"2/8/2020 18:04:01.825",-0.102,0.125,0.223,2020-02-08 18:04:01.825
"2/8/2020 18:04:01.838",-0.176,0.238,0.09,2020-02-08 18:04:01.838
"2/8/2020 18:04:01.850",-0.277,0.371,-0.066,2020-02-08 18:04:01.849
"2/8/2020 18:04:01.863",-0.48,0.375,-0.211,2020-02-08 18:04:01.862
"2/8/2020 18:04:01.875",-0.723,0.348,-0.355,2020-02-08 18:04:01.875
"2/8/2020 18:04:01.888",-0.895,0.32,-0.473,2020-02-08 18:04:01.888
"2/8/2020 18:04:01.900",-0.977,0.531,-0.641,2020-02-08 18:04:01.900
"2/8/2020 18:04:01.913",-1.063,0.547,-0.652,2020-02-08 18:04:01.913
"2/8/2020 18:04:01.925",-1.148,0.684,-0.602,2020-02-08 18:04:01.924
"2/8/2020 18:04:01.938",-1.195,0.891,-0.57,2020-02-08 18:04:01.937
"2/8/2020 18:04:01.950",-1.203,1.121,-0.488,2020-02-08 18:04:01.950
"2/8/2020 18:04:01.963",-1.199,1.371,-0.371,2020-02-08 18:04:01.963
"2/8/2020 18:04:01.975",-1.184,1.535,-0.223,2020-02-08 18:04:01.974
"2/8/2020 18:04:01.988",-1.16,1.695,-0.031,2020-02-08 18:04:01.987
"2/8/2020 18:04:02.000",-1.117,1.832,0.156,2020-02-08 18:04:02.000
"2/8/2020 18:04:02.013",-1.059,1.906,0.281,2020-02-08 18:04:02.013
"2/8/2020 18:04:02.025",-0.992,1.895,0.277,2020-02-08 18:04:02.025
"2/8/2020 18:04:02.038",-0.922,1.785,0.098,2020-02-08 18:04:02.038
"2/8/2020 18:04:02.050",-0.832,1.746,-0.125,2020-02-08 18:04:02.049
"2/8/2020 18:04:02.063",-0.738,1.746,-0.371,2020-02-08 18:04:02.062
"2/8/2020 18:04:02.075",-0.637,1.656,-0.664,2020-02-08 18:04:02.075
"2/8/2020 18:04:02.088",-0.508,1.48,-0.969,2020-02-08 18:04:02.088
"2/8/2020 18:04:02.100",-0.414,1.301,-1.258,2020-02-08 18:04:02.099
"2/8/2020 18:04:02.113",-0.426,1.207,-1.484,2020-02-08 18:04:02.112
"2/8/2020 18:04:02.125",-0.445,1.141,-1.648,2020-02-08 18:04:02.125
"2/8/2020 18:04:02.138",-0.43,1.016,-1.652,2020-02-08 18:04:02.138
"2/8/2020 18:04:02.150",-0.449,0.719,-1.563,2020-02-08 18:04:02.150
"2/8/2020 18:04:02.163",-0.586,0.438,-1.449,2020-02-08 18:04:02.163
"2/8/2020 18:04:02.175",-0.75,0.313,-1.359,2020-02-08 18:04:02.174
"2/8/2020 18:04:02.188",-0.844,0.27,-1.324,2020-02-08 18:04:02.187
"2/8/2020 18:04:02.200",-0.816,0.363,-1.277,2020-02-08 18:04:02.200
"2/8/2020 18:04:02.213",-0.773,0.508,-1.238,2020-02-08 18:04:02.213
"2/8/2020 18:04:02.225",-0.734,0.625,-1.195,2020-02-08 18:04:02.224
"2/8/2020 18:04:02.238",-0.75,0.664,-1.156,2020-02-08 18:04:02.237
"2/8/2020 18:04:02.250",-0.809,0.715,-1.082,2020-02-08 18:04:02.250
"2/8/2020 18:04:02.263",-0.809,0.82,-0.961,2020-02-08 18:04:02.263
"2/8/2020 18:04:02.275",-0.773,0.883,-0.84,2020-02-08 18:04:02.275
"2/8/2020 18:04:02.288",-0.707,0.852,-0.758,2020-02-08 18:04:02.288
"2/8/2020 18:04:02.300",-0.578,0.781,-0.746,2020-02-08 18:04:02.299
"2/8/2020 18:04:02.313",-0.453,0.801,-0.777,2020-02-08 18:04:02.312
"2/8/2020 18:04:02.325",-0.398,0.906,-0.746,2020-02-08 18:04:02.325
"2/8/2020 18:04:02.338",-0.313,1.035,-0.57,2020-02-08 18:04:02.338
"2/8/2020 18:04:02.350",-0.313,1.004,-0.352,2020-02-08 18:04:02.349
"2/8/2020 18:04:02.363",-0.332,0.84,-0.191,2020-02-08 18:04:02.362
"2/8/2020 18:04:02.375",-0.266,0.68,-0.082,2020-02-08 18:04:02.375
"2/8/2020 18:04:02.388",-0.117,0.434,-0.059,2020-02-08 18:04:02.388
"2/8/2020 18:04:02.400",-0.02,-0.063,-0.133,2020-02-08 18:04:02.400
"2/8/2020 18:04:02.413",0.266,-1.074,-0.156,2020-02-08 18:04:02.413
"2/8/2020 18:04:02.425",0.801,-2.102,-0.016,2020-02-08 18:04:02.424
"2/8/2020 18:04:02.438",1.527,-2.809,0.438,2020-02-08 18:04:02.437
"2/8/2020 18:04:02.450",2.246,-2.895,1.043,2020-02-08 18:04:02.450
"2/8/2020 18:04:02.463",2.43,-2.258,1.465,2020-02-08 18:04:02.463
"2/8/2020 18:04:02.475",2.113,-1.172,1.746,2020-02-08 18:04:02.474
"2/8/2020 18:04:02.488",2.016,-0.367,2.184,2020-02-08 18:04:02.487
"2/8/2020 18:04:02.500",1.77,-0.332,2.324,2020-02-08 18:04:02.500
"2/8/2020 18:04:02.513",1.316,-0.473,2.141,2020-02-08 18:04:02.513
"2/8/2020 18:04:02.525",1.066,-0.617,1.844,2020-02-08 18:04:02.525
"2/8/2020 18:04:02.538",0.941,-0.516,1.645,2020-02-08 18:04:02.538
"2/8/2020 18:04:02.550",0.809,-0.203,1.551,2020-02-08 18:04:02.549
"2/8/2020 18:04:02.563",0.617,-0.012,1.512,2020-02-08 18:04:02.562
"2/8/2020 18:04:02.575",0.387,-0.02,1.586,2020-02-08 18:04:02.575
"2/8/2020 18:04:02.588",0.188,-0.063,1.633,2020-02-08 18:04:02.588
"2/8/2020 18:04:02.600",0.035,0.031,1.605,2020-02-08 18:04:02.599
"2/8/2020 18:04:02.613",-0.105,0.078,1.566,2020-02-08 18:04:02.612
"2/8/2020 18:04:02.625",-0.184,0.066,1.496,2020-02-08 18:04:02.625
"2/8/2020 18:04:02.638",-0.234,0,1.418,2020-02-08 18:04:02.638
"2/8/2020 18:04:02.650",-0.336,-0.027,1.367,2020-02-08 18:04:02.650
"2/8/2020 18:04:02.663",-0.418,-0.008,1.387,2020-02-08 18:04:02.663
"2/8/2020 18:04:02.675",-0.461,-0.008,1.426,2020-02-08 18:04:02.674
"2/8/2020 18:04:02.688",-0.465,-0.078,1.418,2020-02-08 18:04:02.687
"2/8/2020 18:04:02.700",-0.43,-0.219,1.391,2020-02-08 18:04:02.700
"2/8/2020 18:04:02.713",-0.352,-0.277,1.352,2020-02-08 18:04:02.713
"2/8/2020 18:04:02.725",-0.301,-0.285,1.293,2020-02-08 18:04:02.724
"2/8/2020 18:04:02.738",-0.285,-0.254,1.23,2020-02-08 18:04:02.737
"2/8/2020 18:04:02.750",-0.289,-0.254,1.195,2020-02-08 18:04:02.750
"2/8/2020 18:04:02.763",-0.281,-0.234,1.145,2020-02-08 18:04:02.763
"2/8/2020 18:04:02.775",-0.242,-0.285,1.09,2020-02-08 18:04:02.775
"2/8/2020 18:04:02.788",-0.223,-0.211,0.938,2020-02-08 18:04:02.788
"2/8/2020 18:04:02.800",-0.203,-0.043,0.816,2020-02-08 18:04:02.799
"2/8/2020 18:04:02.813",-0.141,0.227,0.754,2020-02-08 18:04:02.812
"2/8/2020 18:04:02.825",-0.082,0.473,0.633,2020-02-08 18:04:02.825
"2/8/2020 18:04:02.838",-0.082,0.887,0.406,2020-02-08 18:04:02.838
"2/8/2020 18:04:02.850",-0.043,1.148,0.203,2020-02-08 18:04:02.849
"2/8/2020 18:04:02.863",0.043,1.246,-0.07,2020-02-08 18:04:02.862
"2/8/2020 18:04:02.875",0.176,1.25,-0.371,2020-02-08 18:04:02.875
"2/8/2020 18:04:02.888",0.355,1.352,-0.742,2020-02-08 18:04:02.888
"2/8/2020 18:04:02.900",0.484,1.395,-1.016,2020-02-08 18:04:02.900
"2/8/2020 18:04:02.913",0.609,1.125,-1.273,2020-02-08 18:04:02.913
"2/8/2020 18:04:02.925",0.832,0.859,-1.582,2020-02-08 18:04:02.924
"2/8/2020 18:04:02.938",1.125,0.617,-1.855,2020-02-08 18:04:02.937
"2/8/2020 18:04:02.950",1.445,0.465,-2.121,2020-02-08 18:04:02.950
"2/8/2020 18:04:02.963",1.695,0.355,-2.352,2020-02-08 18:04:02.963
"2/8/2020 18:04:02.975",1.934,0.301,-2.48,2020-02-08 18:04:02.974
"2/8/2020 18:04:02.988",2.152,0.355,-2.523,2020-02-08 18:04:02.987
"2/8/2020 18:04:03.000",2.336,0.438,-2.512,2020-02-08 18:04:03.000
"2/8/2020 18:04:03.013",2.469,0.5,-2.52,2020-02-08 18:04:03.013
"2/8/2020 18:04:03.025",2.543,0.586,-2.539,2020-02-08 18:04:03.025
"2/8/2020 18:04:03.038",2.59,0.625,-2.551,2020-02-08 18:04:03.038
"2/8/2020 18:04:03.050",2.617,0.664,-2.59,2020-02-08 18:04:03.049
"2/8/2020 18:04:03.063",2.641,0.648,-2.617,2020-02-08 18:04:03.062
"2/8/2020 18:04:03.075",2.723,0.648,-2.688,2020-02-08 18:04:03.075
"2/8/2020 18:04:03.088",2.805,0.633,-2.746,2020-02-08 18:04:03.088
"2/8/2020 18:04:03.100",2.824,0.57,-2.746,2020-02-08 18:04:03.099
"2/8/2020 18:04:03.113",2.809,0.504,-2.777,2020-02-08 18:04:03.112
"2/8/2020 18:04:03.125",2.754,0.465,-2.766,2020-02-08 18:04:03.125
"2/8/2020 18:04:03.138",2.668,0.41,-2.699,2020-02-08 18:04:03.138
"2/8/2020 18:04:03.150",2.543,0.309,-2.559,2020-02-08 18:04:03.150
"2/8/2020 18:04:03.163",2.41,0.266,-2.414,2020-02-08 18:04:03.163
"2/8/2020 18:04:03.175",2.262,0.32,-2.305,2020-02-08 18:04:03.174
"2/8/2020 18:04:03.188",2.09,0.445,-2.242,2020-02-08 18:04:03.187
"2/8/2020 18:04:03.200",1.883,0.535,-2.125,2020-02-08 18:04:03.200
"2/8/2020 18:04:03.213",1.676,0.559,-1.973,2020-02-08 18:04:03.213
"2/8/2020 18:04:03.225",1.531,0.551,-1.906,2020-02-08 18:04:03.224
"2/8/2020 18:04:03.238",1.41,0.609,-1.832,2020-02-08 18:04:03.237
"2/8/2020 18:04:03.250",1.203,0.684,-1.703,2020-02-08 18:04:03.250
"2/8/2020 18:04:03.263",1.059,0.723,-1.527,2020-02-08 18:04:03.263
"2/8/2020 18:04:03.275",0.938,0.883,-1.391,2020-02-08 18:04:03.275
"2/8/2020 18:04:03.288",0.824,1.125,-1.207,2020-02-08 18:04:03.288
"2/8/2020 18:04:03.300",0.727,1.309,-1.02,2020-02-08 18:04:03.299
"2/8/2020 18:04:03.313",0.648,1.371,-0.859,2020-02-08 18:04:03.312
"2/8/2020 18:04:03.325",0.613,1.27,-0.707,2020-02-08 18:04:03.325
"2/8/2020 18:04:03.338",0.641,1.086,-0.547,2020-02-08 18:04:03.338
"2/8/2020 18:04:03.350",0.707,0.953,-0.383,2020-02-08 18:04:03.349
"2/8/2020 18:04:03.363",0.789,0.871,-0.148,2020-02-08 18:04:03.362
"2/8/2020 18:04:03.375",0.715,0.719,0.078,2020-02-08 18:04:03.375
"2/8/2020 18:04:03.388",0.676,0.563,0.234,2020-02-08 18:04:03.388
"2/8/2020 18:04:03.400",0.77,0.523,0.285,2020-02-08 18:04:03.400
"2/8/2020 18:04:03.413",0.762,0.391,0.391,2020-02-08 18:04:03.413
"2/8/2020 18:04:03.425",0.828,0.078,0.609,2020-02-08 18:04:03.424
"2/8/2020 18:04:03.438",0.785,-0.316,0.828,2020-02-08 18:04:03.437
"2/8/2020 18:04:03.450",0.906,-0.703,0.941,2020-02-08 18:04:03.450
"2/8/2020 18:04:03.463",1.023,-0.871,1.008,2020-02-08 18:04:03.463
"2/8/2020 18:04:03.475",1.035,-0.875,1.035,2020-02-08 18:04:03.474
"2/8/2020 18:04:03.488",1.027,-0.816,1.012,2020-02-08 18:04:03.487
"2/8/2020 18:04:03.500",0.992,-0.785,0.941,2020-02-08 18:04:03.500
"2/8/2020 18:04:03.513",0.934,-0.969,0.852,2020-02-08 18:04:03.513
"2/8/2020 18:04:03.525",0.875,-1.359,0.719,2020-02-08 18:04:03.525
"2/8/2020 18:04:03.538",0.82,-1.699,0.535,2020-02-08 18:04:03.538
"2/8/2020 18:04:03.550",0.715,-1.93,0.254,2020-02-08 18:04:03.549
"2/8/2020 18:04:03.563",0.621,-2.191,-0.027,2020-02-08 18:04:03.562
"2/8/2020 18:04:03.575",0.699,-2.504,-0.078,2020-02-08 18:04:03.575
"2/8/2020 18:04:03.588",1.141,-2.859,0.137,2020-02-08 18:04:03.588
"2/8/2020 18:04:03.600",1.719,-2.879,0.375,2020-02-08 18:04:03.599
"2/8/2020 18:04:03.613",1.797,-2.566,0.371,2020-02-08 18:04:03.612
"2/8/2020 18:04:03.625",1.602,-2.051,0.566,2020-02-08 18:04:03.625
"2/8/2020 18:04:03.638",1.492,-1.367,0.906,2020-02-08 18:04:03.638
"2/8/2020 18:04:03.650",1.148,-0.723,1.078,2020-02-08 18:04:03.650
"2/8/2020 18:04:03.663",0.859,-0.082,0.875,2020-02-08 18:04:03.663
"2/8/2020 18:04:03.675",0.473,0.246,0.691,2020-02-08 18:04:03.674
"2/8/2020 18:04:03.688",0.313,0.137,0.598,2020-02-08 18:04:03.687
"2/8/2020 18:04:03.700",0.313,-0.031,0.512,2020-02-08 18:04:03.700
"2/8/2020 18:04:03.713",0.398,-0.25,0.391,2020-02-08 18:04:03.713
"2/8/2020 18:04:03.725",0.449,-0.391,0.266,2020-02-08 18:04:03.724
"2/8/2020 18:04:03.738",0.406,-0.355,0.199,2020-02-08 18:04:03.737
"2/8/2020 18:04:03.750",0.285,-0.246,0.215,2020-02-08 18:04:03.750
"2/8/2020 18:04:03.763",0.152,-0.156,0.363,2020-02-08 18:04:03.763
"2/8/2020 18:04:03.775",-0.016,-0.129,0.555,2020-02-08 18:04:03.775
"2/8/2020 18:04:03.788",-0.184,-0.125,0.633,2020-02-08 18:04:03.788
"2/8/2020 18:04:03.800",-0.336,-0.117,0.574,2020-02-08 18:04:03.799
"2/8/2020 18:04:03.813",-0.438,-0.148,0.461,2020-02-08 18:04:03.812
"2/8/2020 18:04:03.825",-0.48,-0.195,0.313,2020-02-08 18:04:03.825
"2/8/2020 18:04:03.838",-0.484,-0.246,0.234,2020-02-08 18:04:03.838
"2/8/2020 18:04:03.850",-0.469,-0.32,0.227,2020-02-08 18:04:03.849
"2/8/2020 18:04:03.863",-0.457,-0.375,0.203,2020-02-08 18:04:03.862
"2/8/2020 18:04:03.875",-0.461,-0.441,0.188,2020-02-08 18:04:03.875
"2/8/2020 18:04:03.888",-0.453,-0.508,0.137,2020-02-08 18:04:03.888
"2/8/2020 18:04:03.900",-0.434,-0.602,0.074,2020-02-08 18:04:03.900
"2/8/2020 18:04:03.913",-0.418,-0.684,0.043,2020-02-08 18:04:03.913
"2/8/2020 18:04:03.925",-0.426,-0.762,0.035,2020-02-08 18:04:03.924
"2/8/2020 18:04:03.938",-0.438,-0.816,0.047,2020-02-08 18:04:03.937
"2/8/2020 18:04:03.950",-0.457,-0.875,0.07,2020-02-08 18:04:03.950
"2/8/2020 18:04:03.963",-0.457,-0.945,0.086,2020-02-08 18:04:03.963
"2/8/2020 18:04:03.975",-0.441,-1.008,0.082,2020-02-08 18:04:03.974
"2/8/2020 18:04:03.988",-0.426,-1.055,0.078,2020-02-08 18:04:03.987
"2/8/2020 18:04:04.000",-0.414,-1.109,0.086,2020-02-08 18:04:04.000
"2/8/2020 18:04:04.013",-0.395,-1.141,0.066,2020-02-08 18:04:04.013
"2/8/2020 18:04:04.025",-0.402,-1.156,0.07,2020-02-08 18:04:04.025
"2/8/2020 18:04:04.038",-0.422,-1.141,0.094,2020-02-08 18:04:04.038
"2/8/2020 18:04:04.050",-0.426,-1.121,0.109,2020-02-08 18:04:04.049
"2/8/2020 18:04:04.063",-0.418,-1.098,0.113,2020-02-08 18:04:04.062
"2/8/2020 18:04:04.075",-0.41,-1.09,0.098,2020-02-08 18:04:04.075
"2/8/2020 18:04:04.088",-0.402,-1.082,0.086,2020-02-08 18:04:04.088
"2/8/2020 18:04:04.100",-0.418,-1.063,0.105,2020-02-08 18:04:04.099
"2/8/2020 18:04:04.113",-0.43,-1.012,0.121,2020-02-08 18:04:04.112
"2/8/2020 18:04:04.125",-0.469,-0.992,0.129,2020-02-08 18:04:04.125
"2/8/2020 18:04:04.138",-0.504,-0.965,0.125,2020-02-08 18:04:04.138
"2/8/2020 18:04:04.150",-0.539,-0.969,0.148,2020-02-08 18:04:04.150
"2/8/2020 18:04:04.163",-0.566,-0.957,0.152,2020-02-08 18:04:04.163
"2/8/2020 18:04:04.175",-0.586,-0.906,0.141,2020-02-08 18:04:04.174
"2/8/2020 18:04:04.188",-0.609,-0.855,0.141,2020-02-08 18:04:04.187
"2/8/2020 18:04:04.200",-0.645,-0.82,0.16,2020-02-08 18:04:04.200
"2/8/2020 18:04:04.213",-0.656,-0.789,0.184,2020-02-08 18:04:04.213
"2/8/2020 18:04:04.225",-0.656,-0.758,0.188,2020-02-08 18:04:04.224
"2/8/2020 18:04:04.238",-0.652,-0.695,0.164,2020-02-08 18:04:04.237
"2/8/2020 18:04:04.250",-0.656,-0.609,0.145,2020-02-08 18:04:04.250
"2/8/2020 18:04:04.263",-0.664,-0.551,0.141,2020-02-08 18:04:04.263
"2/8/2020 18:04:04.275",-0.668,-0.5,0.145,2020-02-08 18:04:04.275
"2/8/2020 18:04:04.288",-0.66,-0.434,0.152,2020-02-08 18:04:04.288
"2/8/2020 18:04:04.300",-0.645,-0.359,0.152,2020-02-08 18:04:04.299
"2/8/2020 18:04:04.313",-0.609,-0.242,0.141,2020-02-08 18:04:04.312
"2/8/2020 18:04:04.325",-0.574,-0.113,0.105,2020-02-08 18:04:04.325
"2/8/2020 18:04:04.338",-0.535,-0.02,0.047,2020-02-08 18:04:04.338
"2/8/2020 18:04:04.350",-0.465,0.012,0.016,2020-02-08 18:04:04.349
"2/8/2020 18:04:04.363",-0.367,0.004,-0.02,2020-02-08 18:04:04.362
"2/8/2020 18:04:04.375",-0.219,0.145,-0.121,2020-02-08 18:04:04.375
"2/8/2020 18:04:04.388",-0.094,0.262,-0.141,2020-02-08 18:04:04.388
"2/8/2020 18:04:04.400",-0.02,0.301,-0.168,2020-02-08 18:04:04.400
"2/8/2020 18:04:04.413",0.004,0.414,-0.254,2020-02-08 18:04:04.413
"2/8/2020 18:04:04.425",-0.008,0.461,-0.313,2020-02-08 18:04:04.424
"2/8/2020 18:04:04.438",-0.063,0.512,-0.375,2020-02-08 18:04:04.437
"2/8/2020 18:04:04.450",-0.113,0.605,-0.465,2020-02-08 18:04:04.450
"2/8/2020 18:04:04.463",-0.152,0.699,-0.617,2020-02-08 18:04:04.463
"2/8/2020 18:04:04.475",-0.211,0.797,-0.68,2020-02-08 18:04:04.474
"2/8/2020 18:04:04.488",-0.195,0.91,-0.602,2020-02-08 18:04:04.487
"2/8/2020 18:04:04.500",-0.188,1.074,-0.371,2020-02-08 18:04:04.500
"2/8/2020 18:04:04.513",-0.277,1.176,-0.094,2020-02-08 18:04:04.513
"2/8/2020 18:04:04.525",-0.465,1.23,0.195,2020-02-08 18:04:04.525
"2/8/2020 18:04:04.538",-0.652,1.238,0.48,2020-02-08 18:04:04.538
"2/8/2020 18:04:04.550",-0.77,1.172,0.73,2020-02-08 18:04:04.549
"2/8/2020 18:04:04.563",-0.785,1.148,0.922,2020-02-08 18:04:04.562
"2/8/2020 18:04:04.575",-0.867,1.141,0.906,2020-02-08 18:04:04.575
"2/8/2020 18:04:04.588",-1.082,1.129,0.871,2020-02-08 18:04:04.588
"2/8/2020 18:04:04.600",-1.168,1.051,1,2020-02-08 18:04:04.599
"2/8/2020 18:04:04.613",-1.016,0.898,1.336,2020-02-08 18:04:04.612
"2/8/2020 18:04:04.625",-0.75,0.742,1.707,2020-02-08 18:04:04.625
"2/8/2020 18:04:04.638",-0.484,0.574,1.906,2020-02-08 18:04:04.638
"2/8/2020 18:04:04.650",-0.246,0.402,1.867,2020-02-08 18:04:04.650
"2/8/2020 18:04:04.663",-0.047,0.246,1.684,2020-02-08 18:04:04.663
"2/8/2020 18:04:04.675",0.121,0.141,1.531,2020-02-08 18:04:04.674
"2/8/2020 18:04:04.688",0.406,0.027,1.508,2020-02-08 18:04:04.687
"2/8/2020 18:04:04.700",0.793,-0.113,1.5,2020-02-08 18:04:04.700
"2/8/2020 18:04:04.713",1.094,-0.273,1.414,2020-02-08 18:04:04.713
"2/8/2020 18:04:04.725",1.188,-0.523,1.273,2020-02-08 18:04:04.724
"2/8/2020 18:04:04.738",1.18,-0.828,1.191,2020-02-08 18:04:04.737
"2/8/2020 18:04:04.750",1.242,-1.051,1.125,2020-02-08 18:04:04.750
"2/8/2020 18:04:04.763",1.332,-1.145,1.047,2020-02-08 18:04:04.763
"2/8/2020 18:04:04.775",1.348,-1.176,0.938,2020-02-08 18:04:04.775
"2/8/2020 18:04:04.788",1.297,-1.152,0.793,2020-02-08 18:04:04.788
"2/8/2020 18:04:04.800",1.191,-1.113,0.664,2020-02-08 18:04:04.799
"2/8/2020 18:04:04.813",1.078,-1.098,0.582,2020-02-08 18:04:04.812
"2/8/2020 18:04:04.825",0.988,-1.078,0.512,2020-02-08 18:04:04.825
"2/8/2020 18:04:04.838",0.902,-1.012,0.461,2020-02-08 18:04:04.838
"2/8/2020 18:04:04.850",0.793,-0.965,0.453,2020-02-08 18:04:04.849
"2/8/2020 18:04:04.863",0.68,-0.922,0.453,2020-02-08 18:04:04.862
"2/8/2020 18:04:04.875",0.582,-0.84,0.449,2020-02-08 18:04:04.875
"2/8/2020 18:04:04.888",0.488,-0.738,0.438,2020-02-08 18:04:04.888
"2/8/2020 18:04:04.900",0.41,-0.664,0.453,2020-02-08 18:04:04.900
"2/8/2020 18:04:04.913",0.402,-0.582,0.492,2020-02-08 18:04:04.913
"2/8/2020 18:04:04.925",0.426,-0.586,0.609,2020-02-08 18:04:04.924
"2/8/2020 18:04:04.938",0.484,-0.645,0.699,2020-02-08 18:04:04.937
"2/8/2020 18:04:04.950",0.551,-0.633,0.742,2020-02-08 18:04:04.950
"2/8/2020 18:04:04.963",0.605,-0.629,0.816,2020-02-08 18:04:04.963
"2/8/2020 18:04:04.975",0.703,-0.641,0.953,2020-02-08 18:04:04.974
"2/8/2020 18:04:04.988",0.863,-0.641,1.137,2020-02-08 18:04:04.987
"2/8/2020 18:04:05.000",1.066,-0.621,1.168,2020-02-08 18:04:05.000
"2/8/2020 18:04:05.013",1.273,-0.59,1,2020-02-08 18:04:05.013
"2/8/2020 18:04:05.025",1.422,-0.492,0.809,2020-02-08 18:04:05.025
"2/8/2020 18:04:05.038",1.465,-0.309,0.707,2020-02-08 18:04:05.038
"2/8/2020 18:04:05.050",1.395,-0.141,0.684,2020-02-08 18:04:05.049
"2/8/2020 18:04:05.063",1.32,-0.098,0.688,2020-02-08 18:04:05.062
"2/8/2020 18:04:05.075",1.352,-0.047,0.691,2020-02-08 18:04:05.075
"2/8/2020 18:04:05.088",1.473,0.152,0.652,2020-02-08 18:04:05.088
"2/8/2020 18:04:05.100",1.563,0.383,0.59,2020-02-08 18:04:05.099
"2/8/2020 18:04:05.113",1.598,0.512,0.484,2020-02-08 18:04:05.112
"2/8/2020 18:04:05.125",1.559,0.555,0.352,2020-02-08 18:04:05.125
"2/8/2020 18:04:05.138",1.418,0.527,0.246,2020-02-08 18:04:05.138
"2/8/2020 18:04:05.150",1.246,0.41,0.254,2020-02-08 18:04:05.150
"2/8/2020 18:04:05.163",1.086,0.289,0.309,2020-02-08 18:04:05.163
"2/8/2020 18:04:05.175",0.918,0.262,0.359,2020-02-08 18:04:05.174
"2/8/2020 18:04:05.188",0.738,0.328,0.367,2020-02-08 18:04:05.187
"2/8/2020 18:04:05.200",0.551,0.395,0.355,2020-02-08 18:04:05.200
"2/8/2020 18:04:05.213",0.285,0.402,0.316,2020-02-08 18:04:05.213
"2/8/2020 18:04:05.225",-0.012,0.469,0.211,2020-02-08 18:04:05.224
"2/8/2020 18:04:05.238",-0.305,0.563,0.086,2020-02-08 18:04:05.237
"2/8/2020 18:04:05.250",-0.582,0.617,0.023,2020-02-08 18:04:05.250
"2/8/2020 18:04:05.263",-0.805,0.586,0.055,2020-02-08 18:04:05.263
"2/8/2020 18:04:05.275",-0.898,0.461,0.074,2020-02-08 18:04:05.275
"2/8/2020 18:04:05.288",-0.93,0.258,-0.02,2020-02-08 18:04:05.288
"2/8/2020 18:04:05.300",-0.996,0.082,-0.184,2020-02-08 18:04:05.299
"2/8/2020 18:04:05.313",-1.012,0.105,-0.383,2020-02-08 18:04:05.312
"2/8/2020 18:04:05.325",-0.918,0.313,-0.586,2020-02-08 18:04:05.325
"2/8/2020 18:04:05.338",-0.777,0.496,-0.773,2020-02-08 18:04:05.338
"2/8/2020 18:04:05.350",-0.652,0.465,-0.902,2020-02-08 18:04:05.349
"2/8/2020 18:04:05.363",-0.484,0.172,-0.992,2020-02-08 18:04:05.362
"2/8/2020 18:04:05.375",-0.32,-0.109,-1.059,2020-02-08 18:04:05.375
"2/8/2020 18:04:05.388",-0.203,-0.047,-1.09,2020-02-08 18:04:05.388
"2/8/2020 18:04:05.400",-0.109,0.105,-1.219,2020-02-08 18:04:05.400
"2/8/2020 18:04:05.413",0.012,0.148,-1.473,2020-02-08 18:04:05.413
"2/8/2020 18:04:05.425",0.152,0.098,-1.723,2020-02-08 18:04:05.424
"2/8/2020 18:04:05.438",0.309,0.102,-1.84,2020-02-08 18:04:05.437
"2/8/2020 18:04:05.450",0.48,0.168,-1.828,2020-02-08 18:04:05.450
"2/8/2020 18:04:05.463",0.602,0.125,-1.777,2020-02-08 18:04:05.463
"2/8/2020 18:04:05.475",0.5,0.066,-1.852,2020-02-08 18:04:05.474
"2/8/2020 18:04:05.488",0.289,0.125,-2.016,2020-02-08 18:04:05.487
"2/8/2020 18:04:05.500",0.035,0.121,-2.137,2020-02-08 18:04:05.500
"2/8/2020 18:04:05.513",-0.117,0.031,-2.102,2020-02-08 18:04:05.513
"2/8/2020 18:04:05.525",-0.09,-0.004,-1.973,2020-02-08 18:04:05.525
"2/8/2020 18:04:05.538",0.043,-0.109,-1.797,2020-02-08 18:04:05.538
"2/8/2020 18:04:05.550",0.207,-0.254,-1.789,2020-02-08 18:04:05.549
"2/8/2020 18:04:05.563",0.402,-0.328,-1.824,2020-02-08 18:04:05.562
"2/8/2020 18:04:05.575",0.641,-0.418,-1.805,2020-02-08 18:04:05.575
"2/8/2020 18:04:05.588",0.816,-0.434,-1.617,2020-02-08 18:04:05.588
"2/8/2020 18:04:05.600",0.887,-0.25,-1.305,2020-02-08 18:04:05.599
"2/8/2020 18:04:05.613",0.828,0.016,-1,2020-02-08 18:04:05.612
"2/8/2020 18:04:05.625",0.613,0.203,-0.793,2020-02-08 18:04:05.625
"2/8/2020 18:04:05.638",0.316,0.301,-0.691,2020-02-08 18:04:05.638
"2/8/2020 18:04:05.650",0.035,0.332,-0.719,2020-02-08 18:04:05.650
"2/8/2020 18:04:05.663",-0.195,0.383,-0.941,2020-02-08 18:04:05.663
"2/8/2020 18:04:05.675",-0.309,0.316,-1.18,2020-02-08 18:04:05.674
"2/8/2020 18:04:05.688",-0.242,0.016,-1.23,2020-02-08 18:04:05.687
"2/8/2020 18:04:05.700",-0.016,-0.305,-1.035,2020-02-08 18:04:05.700
"2/8/2020 18:04:05.713",0.09,-0.469,-0.758,2020-02-08 18:04:05.713
"2/8/2020 18:04:05.725",-0.035,-0.734,-0.453,2020-02-08 18:04:05.724
"2/8/2020 18:04:05.738",-0.156,-1.016,-0.27,2020-02-08 18:04:05.737
"2/8/2020 18:04:05.750",-0.102,-1.078,-0.156,2020-02-08 18:04:05.750
"2/8/2020 18:04:05.763",-0.02,-0.945,-0.059,2020-02-08 18:04:05.763
"2/8/2020 18:04:05.775",0,-0.797,0.191,2020-02-08 18:04:05.775
"2/8/2020 18:04:05.788",0.023,-0.816,0.582,2020-02-08 18:04:05.788
"2/8/2020 18:04:05.800",0.016,-1.082,0.934,2020-02-08 18:04:05.799
"2/8/2020 18:04:05.813",-0.07,-1.438,1.23,2020-02-08 18:04:05.812
"2/8/2020 18:04:05.825",-0.129,-1.652,1.516,2020-02-08 18:04:05.825
"2/8/2020 18:04:05.838",-0.176,-1.785,1.715,2020-02-08 18:04:05.838
"2/8/2020 18:04:05.850",-0.223,-1.867,1.805,2020-02-08 18:04:05.849
"2/8/2020 18:04:05.863",-0.27,-1.875,1.77,2020-02-08 18:04:05.862
"2/8/2020 18:04:05.875",-0.336,-1.637,1.738,2020-02-08 18:04:05.875
"2/8/2020 18:04:05.888",-0.301,-1.305,1.746,2020-02-08 18:04:05.888
"2/8/2020 18:04:05.900",-0.234,-1.039,1.773,2020-02-08 18:04:05.900
"2/8/2020 18:04:05.913",-0.238,-0.922,1.781,2020-02-08 18:04:05.913
"2/8/2020 18:04:05.925",-0.246,-0.984,1.777,2020-02-08 18:04:05.924
"2/8/2020 18:04:05.938",-0.246,-1.098,1.746,2020-02-08 18:04:05.937
"2/8/2020 18:04:05.950",-0.273,-1.215,1.707,2020-02-08 18:04:05.950
"2/8/2020 18:04:05.963",-0.266,-1.281,1.672,2020-02-08 18:04:05.963
"2/8/2020 18:04:05.975",-0.215,-1.313,1.605,2020-02-08 18:04:05.974
"2/8/2020 18:04:05.988",-0.211,-1.285,1.477,2020-02-08 18:04:05.987
"2/8/2020 18:04:06.000",-0.246,-1.148,1.332,2020-02-08 18:04:06.000
"2/8/2020 18:04:06.013",-0.215,-0.934,1.227,2020-02-08 18:04:06.013
"2/8/2020 18:04:06.025",-0.168,-0.77,1.168,2020-02-08 18:04:06.025
"2/8/2020 18:04:06.038",-0.074,-0.656,1.152,2020-02-08 18:04:06.038
"2/8/2020 18:04:06.050",0.141,-0.582,1.219,2020-02-08 18:04:06.049
"2/8/2020 18:04:06.063",0.434,-0.555,1.293,2020-02-08 18:04:06.062
"2/8/2020 18:04:06.075",0.707,-0.547,1.262,2020-02-08 18:04:06.075
"2/8/2020 18:04:06.088",0.945,-0.391,1.086,2020-02-08 18:04:06.088
"2/8/2020 18:04:06.100",1.168,0.063,0.848,2020-02-08 18:04:06.099
"2/8/2020 18:04:06.113",1.438,0.629,0.652,2020-02-08 18:04:06.112
"2/8/2020 18:04:06.125",1.813,1.117,0.664,2020-02-08 18:04:06.125
"2/8/2020 18:04:06.138",2.082,1.293,0.836,2020-02-08 18:04:06.138
"2/8/2020 18:04:06.150",1.941,1.039,0.977,2020-02-08 18:04:06.150
"2/8/2020 18:04:06.163",1.477,0.57,0.906,2020-02-08 18:04:06.163
"2/8/2020 18:04:06.175",0.977,0.316,0.633,2020-02-08 18:04:06.174
"2/8/2020 18:04:06.188",0.543,0.5,0.297,2020-02-08 18:04:06.187
"2/8/2020 18:04:06.200",0.238,0.949,0.16,2020-02-08 18:04:06.200
"2/8/2020 18:04:06.213",0.152,1.238,0.305,2020-02-08 18:04:06.213
"2/8/2020 18:04:06.225",0.176,1.129,0.535,2020-02-08 18:04:06.224
"2/8/2020 18:04:06.238",0.199,0.746,0.715,2020-02-08 18:04:06.237
"2/8/2020 18:04:06.250",0.195,0.336,0.801,2020-02-08 18:04:06.250
"2/8/2020 18:04:06.263",0.16,0.07,0.824,2020-02-08 18:04:06.263
"2/8/2020 18:04:06.275",0.109,-0.035,0.797,2020-02-08 18:04:06.275
"2/8/2020 18:04:06.288",0.051,-0.031,0.758,2020-02-08 18:04:06.288
"2/8/2020 18:04:06.300",0.02,-0.008,0.762,2020-02-08 18:04:06.299
"2/8/2020 18:04:06.313",0.043,0,0.828,2020-02-08 18:04:06.312
"2/8/2020 18:04:06.325",0.082,0,0.898,2020-02-08 18:04:06.325
"2/8/2020 18:04:06.338",0.113,0.004,0.941,2020-02-08 18:04:06.338
"2/8/2020 18:04:06.350",0.109,0.02,0.957,2020-02-08 18:04:06.349
"2/8/2020 18:04:06.363",0.109,0.027,0.973,2020-02-08 18:04:06.362
"2/8/2020 18:04:06.375",0.125,0.016,1,2020-02-08 18:04:06.375
"2/8/2020 18:04:06.388",0.129,0.023,1.035,2020-02-08 18:04:06.388
"2/8/2020 18:04:06.400",0.145,0.031,1.07,2020-02-08 18:04:06.400
"2/8/2020 18:04:06.413",0.16,0.012,1.086,2020-02-08 18:04:06.413
"2/8/2020 18:04:06.425",0.152,-0.035,1.074,2020-02-08 18:04:06.424
"2/8/2020 18:04:06.438",0.141,-0.074,1.051,2020-02-08 18:04:06.437
"2/8/2020 18:04:06.450",0.117,-0.07,1.027,2020-02-08 18:04:06.450
"2/8/2020 18:04:06.463",0.109,-0.043,0.996,2020-02-08 18:04:06.463
"2/8/2020 18:04:06.475",0.117,0.016,0.961,2020-02-08 18:04:06.474
"2/8/2020 18:04:06.488",0.137,0.063,0.941,2020-02-08 18:04:06.487
"2/8/2020 18:04:06.500",0.152,0.129,0.898,2020-02-08 18:04:06.500
"2/8/2020 18:04:06.513",0.199,0.223,0.879,2020-02-08 18:04:06.513
"2/8/2020 18:04:06.525",0.266,0.34,0.855,2020-02-08 18:04:06.525
"2/8/2020 18:04:06.538",0.344,0.453,0.828,2020-02-08 18:04:06.538
"2/8/2020 18:04:06.550",0.395,0.547,0.766,2020-02-08 18:04:06.549
"2/8/2020 18:04:06.563",0.426,0.621,0.66,2020-02-08 18:04:06.562
"2/8/2020 18:04:06.575",0.469,0.695,0.527,2020-02-08 18:04:06.575
"2/8/2020 18:04:06.588",0.52,0.82,0.402,2020-02-08 18:04:06.588
"2/8/2020 18:04:06.600",0.543,0.914,0.27,2020-02-08 18:04:06.599
"2/8/2020 18:04:06.613",0.52,0.887,0.176,2020-02-08 18:04:06.612
"2/8/2020 18:04:06.625",0.457,0.84,0.129,2020-02-08 18:04:06.625
"2/8/2020 18:04:06.638",0.414,0.871,0.109,2020-02-08 18:04:06.638
"2/8/2020 18:04:06.650",0.398,0.883,0.145,2020-02-08 18:04:06.650
"2/8/2020 18:04:06.663",0.418,0.828,0.219,2020-02-08 18:04:06.663
"2/8/2020 18:04:06.675",0.449,0.805,0.305,2020-02-08 18:04:06.674
"2/8/2020 18:04:06.688",0.43,0.82,0.418,2020-02-08 18:04:06.687
"2/8/2020 18:04:06.700",0.301,0.828,0.426,2020-02-08 18:04:06.700
"2/8/2020 18:04:06.713",0.051,0.875,0.406,2020-02-08 18:04:06.713
"2/8/2020 18:04:06.725",-0.262,0.859,0.469,2020-02-08 18:04:06.724
"2/8/2020 18:04:06.738",-0.566,0.766,0.543,2020-02-08 18:04:06.737
"2/8/2020 18:04:06.750",-0.82,0.652,0.559,2020-02-08 18:04:06.750
"2/8/2020 18:04:06.763",-0.984,0.5,0.539,2020-02-08 18:04:06.763
"2/8/2020 18:04:06.775",-1.063,0.309,0.566,2020-02-08 18:04:06.775
"2/8/2020 18:04:06.788",-1.102,0.176,0.586,2020-02-08 18:04:06.788
"2/8/2020 18:04:06.800",-1.125,0.133,0.602,2020-02-08 18:04:06.799
"2/8/2020 18:04:06.813",-1.102,0.141,0.695,2020-02-08 18:04:06.812
"2/8/2020 18:04:06.825",-1.039,0.141,0.844,2020-02-08 18:04:06.825
"2/8/2020 18:04:06.838",-0.945,0.129,0.98,2020-02-08 18:04:06.838
"2/8/2020 18:04:06.850",-0.848,0.055,0.977,2020-02-08 18:04:06.849
"2/8/2020 18:04:06.863",-0.75,-0.125,0.875,2020-02-08 18:04:06.862
"2/8/2020 18:04:06.875",-0.621,-0.324,0.738,2020-02-08 18:04:06.875
"2/8/2020 18:04:06.888",-0.453,-0.426,0.59,2020-02-08 18:04:06.888
"2/8/2020 18:04:06.900",-0.238,-0.438,0.535,2020-02-08 18:04:06.900
"2/8/2020 18:04:06.913",-0.004,-0.379,0.566,2020-02-08 18:04:06.913
"2/8/2020 18:04:06.925",0.215,-0.332,0.699,2020-02-08 18:04:06.924
"2/8/2020 18:04:06.938",0.383,-0.371,0.918,2020-02-08 18:04:06.937
"2/8/2020 18:04:06.950",0.496,-0.449,1.117,2020-02-08 18:04:06.950
"2/8/2020 18:04:06.963",0.574,-0.457,1.238,2020-02-08 18:04:06.963
"2/8/2020 18:04:06.975",0.633,-0.406,1.25,2020-02-08 18:04:06.974
"2/8/2020 18:04:06.988",0.656,-0.379,1.191,2020-02-08 18:04:06.987
"2/8/2020 18:04:07.000",0.602,-0.438,1.105,2020-02-08 18:04:07.000
"2/8/2020 18:04:07.013",0.559,-0.477,1.004,2020-02-08 18:04:07.013
"2/8/2020 18:04:07.025",0.539,-0.477,0.918,2020-02-08 18:04:07.025
"2/8/2020 18:04:07.038",0.547,-0.457,0.875,2020-02-08 18:04:07.038
"2/8/2020 18:04:07.050",0.574,-0.461,0.879,2020-02-08 18:04:07.049
"2/8/2020 18:04:07.063",0.57,-0.477,0.887,2020-02-08 18:04:07.062
"2/8/2020 18:04:07.075",0.543,-0.457,0.875,2020-02-08 18:04:07.075
"2/8/2020 18:04:07.088",0.516,-0.367,0.867,2020-02-08 18:04:07.088
"2/8/2020 18:04:07.100",0.52,-0.23,0.852,2020-02-08 18:04:07.099
"2/8/2020 18:04:07.113",0.547,-0.082,0.859,2020-02-08 18:04:07.112
"2/8/2020 18:04:07.125",0.605,0.02,0.902,2020-02-08 18:04:07.125
"2/8/2020 18:04:07.138",0.645,0.059,0.961,2020-02-08 18:04:07.138
"2/8/2020 18:04:07.150",0.676,0.09,1.035,2020-02-08 18:04:07.150
"2/8/2020 18:04:07.163",0.746,0.109,1.164,2020-02-08 18:04:07.163
"2/8/2020 18:04:07.175",0.859,0.129,1.328,2020-02-08 18:04:07.174
"2/8/2020 18:04:07.188",1.02,0.145,1.484,2020-02-08 18:04:07.187
"2/8/2020 18:04:07.200",1.18,0.164,1.438,2020-02-08 18:04:07.200
"2/8/2020 18:04:07.213",1.371,0.305,1.223,2020-02-08 18:04:07.213
"2/8/2020 18:04:07.225",1.645,0.703,1.145,2020-02-08 18:04:07.224
"2/8/2020 18:04:07.238",1.918,1.012,1.219,2020-02-08 18:04:07.237
"2/8/2020 18:04:07.250",2.063,0.824,1.402,2020-02-08 18:04:07.250
"2/8/2020 18:04:07.263",2.102,0.512,1.574,2020-02-08 18:04:07.263
"2/8/2020 18:04:07.275",2.027,0.461,1.547,2020-02-08 18:04:07.275
"2/8/2020 18:04:07.288",1.871,0.602,1.438,2020-02-08 18:04:07.288
"2/8/2020 18:04:07.300",1.609,0.715,1.355,2020-02-08 18:04:07.299
"2/8/2020 18:04:07.313",1.305,0.719,1.297,2020-02-08 18:04:07.312
"2/8/2020 18:04:07.325",1.051,0.672,1.219,2020-02-08 18:04:07.325
"2/8/2020 18:04:07.338",0.836,0.598,1.133,2020-02-08 18:04:07.338
"2/8/2020 18:04:07.350",0.563,0.477,1.094,2020-02-08 18:04:07.349
"2/8/2020 18:04:07.363",0.219,0.363,1.027,2020-02-08 18:04:07.362
"2/8/2020 18:04:07.375",-0.176,0.332,0.93,2020-02-08 18:04:07.375
"2/8/2020 18:04:07.388",-0.504,0.246,0.797,2020-02-08 18:04:07.388
"2/8/2020 18:04:07.400",-0.668,0.059,0.719,2020-02-08 18:04:07.400
"2/8/2020 18:04:07.413",-0.723,-0.094,0.617,2020-02-08 18:04:07.413
"2/8/2020 18:04:07.425",-0.754,-0.152,0.484,2020-02-08 18:04:07.424
"2/8/2020 18:04:07.438",-0.785,-0.109,0.301,2020-02-08 18:04:07.437
"2/8/2020 18:04:07.450",-0.777,0.012,0.156,2020-02-08 18:04:07.450
"2/8/2020 18:04:07.463",-0.734,0.117,0.098,2020-02-08 18:04:07.463
"2/8/2020 18:04:07.475",-0.672,0.117,0.074,2020-02-08 18:04:07.474
"2/8/2020 18:04:07.488",-0.629,0.047,0.086,2020-02-08 18:04:07.487
"2/8/2020 18:04:07.500",-0.609,-0.047,0.098,2020-02-08 18:04:07.500
"2/8/2020 18:04:07.513",-0.543,-0.16,0.145,2020-02-08 18:04:07.513
"2/8/2020 18:04:07.525",-0.418,-0.23,0.16,2020-02-08 18:04:07.525
"2/8/2020 18:04:07.538",-0.25,-0.215,0.133,2020-02-08 18:04:07.538
"2/8/2020 18:04:07.550",-0.125,-0.176,0.055,2020-02-08 18:04:07.549
"2/8/2020 18:04:07.563",-0.074,-0.191,-0.02,2020-02-08 18:04:07.562
"2/8/2020 18:04:07.575",-0.047,-0.246,-0.055,2020-02-08 18:04:07.575
"2/8/2020 18:04:07.588",-0.031,-0.258,-0.129,2020-02-08 18:04:07.588
"2/8/2020 18:04:07.600",0.008,-0.207,-0.238,2020-02-08 18:04:07.599
"2/8/2020 18:04:07.613",0.047,-0.23,-0.375,2020-02-08 18:04:07.612
"2/8/2020 18:04:07.625",0.074,-0.34,-0.496,2020-02-08 18:04:07.625
"2/8/2020 18:04:07.638",0.07,-0.445,-0.582,2020-02-08 18:04:07.638
"2/8/2020 18:04:07.650",0.035,-0.477,-0.668,2020-02-08 18:04:07.650
"2/8/2020 18:04:07.663",0.031,-0.434,-0.816,2020-02-08 18:04:07.663
"2/8/2020 18:04:07.675",0.094,-0.297,-0.98,2020-02-08 18:04:07.674
"2/8/2020 18:04:07.688",0.316,-0.18,-1.059,2020-02-08 18:04:07.687
"2/8/2020 18:04:07.700",0.453,-0.121,-1.043,2020-02-08 18:04:07.700
"2/8/2020 18:04:07.713",0.555,0.016,-0.98,2020-02-08 18:04:07.713
"2/8/2020 18:04:07.725",0.668,0.004,-0.902,2020-02-08 18:04:07.724
"2/8/2020 18:04:07.738",0.813,-0.148,-0.965,2020-02-08 18:04:07.737
"2/8/2020 18:04:07.750",0.758,-0.277,-1.234,2020-02-08 18:04:07.750
"2/8/2020 18:04:07.763",0.68,-0.328,-1.438,2020-02-08 18:04:07.763
"2/8/2020 18:04:07.775",0.719,-0.352,-1.422,2020-02-08 18:04:07.775
"2/8/2020 18:04:07.788",0.73,-0.402,-1.375,2020-02-08 18:04:07.788
"2/8/2020 18:04:07.800",0.543,-0.641,-1.301,2020-02-08 18:04:07.799
"2/8/2020 18:04:07.813",0.238,-0.801,-1.168,2020-02-08 18:04:07.812
"2/8/2020 18:04:07.825",-0.195,-0.684,-0.949,2020-02-08 18:04:07.825
"2/8/2020 18:04:07.838",-0.922,-0.367,-0.578,2020-02-08 18:04:07.838
"2/8/2020 18:04:07.850",-1.645,-0.172,0,2020-02-08 18:04:07.849
"2/8/2020 18:04:07.863",-1.98,-0.473,0.684,2020-02-08 18:04:07.862
"2/8/2020 18:04:07.875",-2.102,-1.328,1.383,2020-02-08 18:04:07.875
"2/8/2020 18:04:07.888",-2.156,-2.027,1.801,2020-02-08 18:04:07.888
"2/8/2020 18:04:07.900",-2.035,-2.41,1.781,2020-02-08 18:04:07.900
"2/8/2020 18:04:07.913",-1.598,-2.719,1.543,2020-02-08 18:04:07.913
"2/8/2020 18:04:07.925",-1.063,-3.363,1.266,2020-02-08 18:04:07.924
"2/8/2020 18:04:07.938",-0.684,-4.16,1.203,2020-02-08 18:04:07.937
"2/8/2020 18:04:07.950",-0.52,-4.27,1.18,2020-02-08 18:04:07.950
"2/8/2020 18:04:07.963",-0.418,-4.063,1.195,2020-02-08 18:04:07.963
"2/8/2020 18:04:07.975",-0.402,-3.816,1.164,2020-02-08 18:04:07.974
"2/8/2020 18:04:07.988",-0.426,-3.586,1.063,2020-02-08 18:04:07.987
"2/8/2020 18:04:08.000",-0.48,-3.336,0.883,2020-02-08 18:04:08.000
"2/8/2020 18:04:08.013",-0.496,-3.145,0.734,2020-02-08 18:04:08.013
"2/8/2020 18:04:08.025",-0.438,-3.02,0.668,2020-02-08 18:04:08.025
"2/8/2020 18:04:08.038",-0.344,-2.844,0.684,2020-02-08 18:04:08.038
"2/8/2020 18:04:08.050",-0.242,-2.672,0.738,2020-02-08 18:04:08.049
"2/8/2020 18:04:08.063",-0.145,-2.613,0.844,2020-02-08 18:04:08.062
"2/8/2020 18:04:08.075",0.016,-2.555,0.969,2020-02-08 18:04:08.075
"2/8/2020 18:04:08.088",0.309,-2.52,0.914,2020-02-08 18:04:08.088
"2/8/2020 18:04:08.100",0.73,-2.348,0.527,2020-02-08 18:04:08.099
"2/8/2020 18:04:08.113",1.484,-1.777,0.07,2020-02-08 18:04:08.112
"2/8/2020 18:04:08.125",2.297,-0.988,-0.313,2020-02-08 18:04:08.125
"2/8/2020 18:04:08.138",2.684,-0.555,-0.488,2020-02-08 18:04:08.138
"2/8/2020 18:04:08.150",2.602,-0.637,-0.754,2020-02-08 18:04:08.150
"2/8/2020 18:04:08.163",2.547,-0.832,-1.406,2020-02-08 18:04:08.163
"2/8/2020 18:04:08.175",2.258,-0.879,-2.352,2020-02-08 18:04:08.174
"2/8/2020 18:04:08.188",1.457,-0.852,-3.121,2020-02-08 18:04:08.187
"2/8/2020 18:04:08.200",1.137,-0.652,-3.527,2020-02-08 18:04:08.200
"2/8/2020 18:04:08.213",0.984,0.035,-3.547,2020-02-08 18:04:08.213
"2/8/2020 18:04:08.225",0.813,0.84,-3.059,2020-02-08 18:04:08.224
"2/8/2020 18:04:08.238",0.891,0.957,-2.109,2020-02-08 18:04:08.237
"2/8/2020 18:04:08.250",1.457,0.617,-1.285,2020-02-08 18:04:08.250
"2/8/2020 18:04:08.263",1.469,0.172,-0.754,2020-02-08 18:04:08.263
"2/8/2020 18:04:08.275",1.145,-0.523,-0.367,2020-02-08 18:04:08.275
"2/8/2020 18:04:08.288",0.719,-0.902,-0.086,2020-02-08 18:04:08.288
"2/8/2020 18:04:08.300",0.246,-0.738,-0.07,2020-02-08 18:04:08.299
"2/8/2020 18:04:08.313",0.051,-1.93,-0.023,2020-02-08 18:04:08.312
"2/8/2020 18:04:08.325",-0.352,-2.406,0.031,2020-02-08 18:04:08.325
"2/8/2020 18:04:08.338",-0.52,-1.988,0.063,2020-02-08 18:04:08.338
"2/8/2020 18:04:08.350",-0.484,-2.293,0.656,2020-02-08 18:04:08.349
"2/8/2020 18:04:08.363",-0.566,-0.789,0.602,2020-02-08 18:04:08.362
"2/8/2020 18:04:08.375",-0.852,-0.191,0.121,2020-02-08 18:04:08.375
"2/8/2020 18:04:08.388",-0.672,-0.68,-0.52,2020-02-08 18:04:08.388
"2/8/2020 18:04:08.400",-0.469,-1.77,-0.246,2020-02-08 18:04:08.400
"2/8/2020 18:04:08.413",-0.359,-1.98,-0.094,2020-02-08 18:04:08.413
"2/8/2020 18:04:08.425",-0.215,-1.695,-0.184,2020-02-08 18:04:08.424
"2/8/2020 18:04:08.438",-0.047,-1.758,-0.074,2020-02-08 18:04:08.437
"2/8/2020 18:04:08.450",0.152,-1.707,0.07,2020-02-08 18:04:08.450
"2/8/2020 18:04:08.463",0.238,-1.742,0.168,2020-02-08 18:04:08.463
"2/8/2020 18:04:08.475",0.219,-1.719,0.172,2020-02-08 18:04:08.474
"2/8/2020 18:04:08.488",0.156,-1.527,0.215,2020-02-08 18:04:08.487
"2/8/2020 18:04:08.500",0.207,-1.273,0.34,2020-02-08 18:04:08.500
"2/8/2020 18:04:08.513",0.219,-1.148,0.438,2020-02-08 18:04:08.513
"2/8/2020 18:04:08.525",0.211,-1.066,0.469,2020-02-08 18:04:08.525
"2/8/2020 18:04:08.538",0.242,-0.992,0.508,2020-02-08 18:04:08.538
"2/8/2020 18:04:08.550",0.34,-0.996,0.57,2020-02-08 18:04:08.549
"2/8/2020 18:04:08.563",0.422,-0.91,0.594,2020-02-08 18:04:08.562
"2/8/2020 18:04:08.575",0.414,-0.809,0.672,2020-02-08 18:04:08.575
"2/8/2020 18:04:08.588",0.313,-0.867,0.719,2020-02-08 18:04:08.588
"2/8/2020 18:04:08.600",0.16,-0.945,0.719,2020-02-08 18:04:08.599
"2/8/2020 18:04:08.613",0.016,-0.863,0.75,2020-02-08 18:04:08.612
"2/8/2020 18:04:08.625",-0.074,-0.676,0.93,2020-02-08 18:04:08.625
"2/8/2020 18:04:08.638",0.043,-0.648,1.258,2020-02-08 18:04:08.638
"2/8/2020 18:04:08.650",0.203,-0.656,1.547,2020-02-08 18:04:08.650
"2/8/2020 18:04:08.663",0.277,-0.695,1.773,2020-02-08 18:04:08.663
"2/8/2020 18:04:08.675",0.238,-0.73,1.875,2020-02-08 18:04:08.674
"2/8/2020 18:04:08.688",0.156,-0.645,1.727,2020-02-08 18:04:08.687
"2/8/2020 18:04:08.700",0.113,-0.523,1.543,2020-02-08 18:04:08.700
"2/8/2020 18:04:08.713",0.234,-0.418,1.484,2020-02-08 18:04:08.713
"2/8/2020 18:04:08.725",0.406,-0.195,1.598,2020-02-08 18:04:08.724
"2/8/2020 18:04:08.738",0.547,-0.031,1.863,2020-02-08 18:04:08.737
"2/8/2020 18:04:08.750",0.664,-0.035,2.09,2020-02-08 18:04:08.750
"2/8/2020 18:04:08.763",0.789,-0.016,2.02,2020-02-08 18:04:08.763
"2/8/2020 18:04:08.775",0.914,0,1.766,2020-02-08 18:04:08.775
"2/8/2020 18:04:08.788",1.027,-0.059,1.574,2020-02-08 18:04:08.788
"2/8/2020 18:04:08.800",1.027,-0.25,1.367,2020-02-08 18:04:08.799
"2/8/2020 18:04:08.813",1.035,-0.395,1.133,2020-02-08 18:04:08.812
"2/8/2020 18:04:08.825",0.984,-0.59,0.938,2020-02-08 18:04:08.825
"2/8/2020 18:04:08.838",0.828,-0.734,0.652,2020-02-08 18:04:08.838
"2/8/2020 18:04:08.850",0.746,-0.762,0.367,2020-02-08 18:04:08.849
"2/8/2020 18:04:08.863",0.652,-0.895,0.211,2020-02-08 18:04:08.862
"2/8/2020 18:04:08.875",0.543,-1.051,0.086,2020-02-08 18:04:08.875
"2/8/2020 18:04:08.888",0.441,-1.102,-0.004,2020-02-08 18:04:08.888
"2/8/2020 18:04:08.900",0.41,-1.059,-0.047,2020-02-08 18:04:08.900
"2/8/2020 18:04:08.913",0.398,-0.973,-0.074,2020-02-08 18:04:08.913
"2/8/2020 18:04:08.925",0.379,-0.926,-0.094,2020-02-08 18:04:08.924
"2/8/2020 18:04:08.938",0.367,-0.949,-0.09,2020-02-08 18:04:08.937
"2/8/2020 18:04:08.950",0.344,-1.027,-0.086,2020-02-08 18:04:08.950
"2/8/2020 18:04:08.963",0.313,-1.098,-0.02,2020-02-08 18:04:08.963
"2/8/2020 18:04:08.975",0.254,-1.156,0.043,2020-02-08 18:04:08.974
"2/8/2020 18:04:08.988",0.16,-1.207,0.043,2020-02-08 18:04:08.987
"2/8/2020 18:04:09.000",-0.027,-1.141,0.023,2020-02-08 18:04:09.000
"2/8/2020 18:04:09.013",-0.195,-1.055,0.086,2020-02-08 18:04:09.013
"2/8/2020 18:04:09.025",-0.293,-1.078,0.219,2020-02-08 18:04:09.025
"2/8/2020 18:04:09.038",-0.219,-1.113,0.324,2020-02-08 18:04:09.038
"2/8/2020 18:04:09.050",-0.066,-1.121,0.352,2020-02-08 18:04:09.049
"2/8/2020 18:04:09.063",0.047,-1.23,0.344,2020-02-08 18:04:09.062
"2/8/2020 18:04:09.075",0.156,-1.41,0.328,2020-02-08 18:04:09.075
"2/8/2020 18:04:09.088",0.359,-1.645,0.348,2020-02-08 18:04:09.088
"2/8/2020 18:04:09.100",0.703,-1.734,0.395,2020-02-08 18:04:09.099
"2/8/2020 18:04:09.113",1.152,-1.656,0.477,2020-02-08 18:04:09.112
"2/8/2020 18:04:09.125",1.582,-1.535,0.48,2020-02-08 18:04:09.125
"2/8/2020 18:04:09.138",1.906,-1.371,0.43,2020-02-08 18:04:09.138
"2/8/2020 18:04:09.150",2.316,-1.129,0.422,2020-02-08 18:04:09.150
"2/8/2020 18:04:09.163",2.82,-0.832,0.422,2020-02-08 18:04:09.163
"2/8/2020 18:04:09.175",3.305,-0.605,0.457,2020-02-08 18:04:09.174
"2/8/2020 18:04:09.188",3.219,-0.449,0.145,2020-02-08 18:04:09.187
"2/8/2020 18:04:09.200",2.602,-0.023,-0.648,2020-02-08 18:04:09.200
"2/8/2020 18:04:09.213",1.68,0.738,-1.594,2020-02-08 18:04:09.213
"2/8/2020 18:04:09.225",0.719,1.164,-1.57,2020-02-08 18:04:09.224
"2/8/2020 18:04:09.238",0.941,1.336,-1.301,2020-02-08 18:04:09.237
"2/8/2020 18:04:09.250",0.609,1.898,-0.914,2020-02-08 18:04:09.250
"2/8/2020 18:04:09.263",0.406,1.648,-0.199,2020-02-08 18:04:09.263
"2/8/2020 18:04:09.275",0.422,0.828,0.18,2020-02-08 18:04:09.275
"2/8/2020 18:04:09.288",0.621,0.336,-0.148,2020-02-08 18:04:09.288
"2/8/2020 18:04:09.300",0.906,0.137,-0.66,2020-02-08 18:04:09.299
"2/8/2020 18:04:09.313",1.195,0.375,-0.922,2020-02-08 18:04:09.312
"2/8/2020 18:04:09.325",1.355,1,-0.746,2020-02-08 18:04:09.325
"2/8/2020 18:04:09.338",1.359,1.59,-0.438,2020-02-08 18:04:09.338
"2/8/2020 18:04:09.350",1.273,2.004,-0.363,2020-02-08 18:04:09.349
"2/8/2020 18:04:09.363",1.227,2.152,-0.527,2020-02-08 18:04:09.362
"2/8/2020 18:04:09.375",1.273,2.156,-0.84,2020-02-08 18:04:09.375
"2/8/2020 18:04:09.388",1.371,2.051,-1.227,2020-02-08 18:04:09.388
"2/8/2020 18:04:09.400",1.301,2.145,-1.43,2020-02-08 18:04:09.400
"2/8/2020 18:04:09.413",1.051,2.043,-1.289,2020-02-08 18:04:09.413
"2/8/2020 18:04:09.425",0.863,1.613,-1.074,2020-02-08 18:04:09.424
"2/8/2020 18:04:09.438",0.641,1.332,-0.914,2020-02-08 18:04:09.437
"2/8/2020 18:04:09.450",0.445,1.27,-0.875,2020-02-08 18:04:09.450
"2/8/2020 18:04:09.463",0.039,1.035,-1.109,2020-02-08 18:04:09.463
"2/8/2020 18:04:09.475",-0.273,0.867,-1.219,2020-02-08 18:04:09.474
"2/8/2020 18:04:09.488",-0.371,0.352,-1.094,2020-02-08 18:04:09.487
"2/8/2020 18:04:09.500",-0.504,-0.383,-0.883,2020-02-08 18:04:09.500
"2/8/2020 18:04:09.513",-0.582,-0.691,-0.785,2020-02-08 18:04:09.513
"2/8/2020 18:04:09.525",-0.563,-0.453,-0.809,2020-02-08 18:04:09.525
"2/8/2020 18:04:09.538",-0.535,-0.199,-0.805,2020-02-08 18:04:09.538
"2/8/2020 18:04:09.550",-0.484,-0.102,-0.754,2020-02-08 18:04:09.549
"2/8/2020 18:04:09.563",-0.422,-0.004,-0.586,2020-02-08 18:04:09.562
"2/8/2020 18:04:09.575",-0.496,0.02,-0.473,2020-02-08 18:04:09.575
"2/8/2020 18:04:09.588",-0.523,0.059,-0.395,2020-02-08 18:04:09.588
"2/8/2020 18:04:09.600",-0.508,0.199,-0.379,2020-02-08 18:04:09.599
"2/8/2020 18:04:09.613",-0.449,0.43,-0.344,2020-02-08 18:04:09.612
"2/8/2020 18:04:09.625",-0.391,0.598,-0.234,2020-02-08 18:04:09.625
"2/8/2020 18:04:09.638",-0.309,0.723,-0.133,2020-02-08 18:04:09.638
"2/8/2020 18:04:09.650",-0.305,0.785,-0.102,2020-02-08 18:04:09.650
"2/8/2020 18:04:09.663",-0.207,0.82,-0.125,2020-02-08 18:04:09.663
"2/8/2020 18:04:09.675",-0.133,0.883,-0.156,2020-02-08 18:04:09.674
"2/8/2020 18:04:09.688",0.051,1.184,-0.164,2020-02-08 18:04:09.687
"2/8/2020 18:04:09.700",0.121,1.52,-0.125,2020-02-08 18:04:09.700
"2/8/2020 18:04:09.713",0.141,1.691,-0.094,2020-02-08 18:04:09.713
"2/8/2020 18:04:09.725",0.184,1.816,-0.145,2020-02-08 18:04:09.724
"2/8/2020 18:04:09.738",0.234,2,-0.32,2020-02-08 18:04:09.737
"2/8/2020 18:04:09.750",0.273,2,-0.473,2020-02-08 18:04:09.750
"2/8/2020 18:04:09.763",0.258,1.727,-0.582,2020-02-08 18:04:09.763
"2/8/2020 18:04:09.775",0.27,1.25,-0.707,2020-02-08 18:04:09.775
"2/8/2020 18:04:09.788",0.238,0.488,-0.813,2020-02-08 18:04:09.788
"2/8/2020 18:04:09.800",0.289,-0.285,-0.879,2020-02-08 18:04:09.799
"2/8/2020 18:04:09.813",0.512,-1.102,-0.805,2020-02-08 18:04:09.812
"2/8/2020 18:04:09.825",0.93,-1.879,-0.559,2020-02-08 18:04:09.825
"2/8/2020 18:04:09.838",1.578,-2.813,-0.105,2020-02-08 18:04:09.838
"2/8/2020 18:04:09.850",2.137,-4.195,0.613,2020-02-08 18:04:09.849
"2/8/2020 18:04:09.863",2.719,-5.281,1.156,2020-02-08 18:04:09.862
"2/8/2020 18:04:09.875",3.172,-4.984,0.938,2020-02-08 18:04:09.875
"2/8/2020 18:04:09.888",3.625,-3.578,0.398,2020-02-08 18:04:09.888
"2/8/2020 18:04:09.900",4.285,-1.918,0.027,2020-02-08 18:04:09.900
"2/8/2020 18:04:09.913",5.664,-0.551,0.055,2020-02-08 18:04:09.913
"2/8/2020 18:04:09.925",4.891,0.23,-0.129,2020-02-08 18:04:09.924
"2/8/2020 18:04:09.938",3.402,0.211,-0.387,2020-02-08 18:04:09.937
"2/8/2020 18:04:09.950",2.742,0.219,-0.434,2020-02-08 18:04:09.950
"2/8/2020 18:04:09.963",2.355,0.297,0.023,2020-02-08 18:04:09.963
"2/8/2020 18:04:09.975",1.984,-0.023,0.66,2020-02-08 18:04:09.974
"2/8/2020 18:04:09.988",1.801,-0.098,1.07,2020-02-08 18:04:09.987
"2/8/2020 18:04:10.000",1.738,0.074,1.184,2020-02-08 18:04:10.000
"2/8/2020 18:04:10.013",1.637,-0.031,1.18,2020-02-08 18:04:10.013
"2/8/2020 18:04:10.025",1.48,-0.188,0.898,2020-02-08 18:04:10.025
"2/8/2020 18:04:10.038",1.32,0.004,0.637,2020-02-08 18:04:10.038
"2/8/2020 18:04:10.050",1.102,0.316,0.52,2020-02-08 18:04:10.049
"2/8/2020 18:04:10.063",0.84,0.594,0.465,2020-02-08 18:04:10.062
"2/8/2020 18:04:10.075",0.512,0.691,0.336,2020-02-08 18:04:10.075
"2/8/2020 18:04:10.088",0.25,0.699,0.16,2020-02-08 18:04:10.088
"2/8/2020 18:04:10.100",0.082,0.602,0.031,2020-02-08 18:04:10.099
"2/8/2020 18:04:10.113",-0.016,0.504,-0.074,2020-02-08 18:04:10.112
"2/8/2020 18:04:10.125",-0.145,0.25,-0.176,2020-02-08 18:04:10.125
"2/8/2020 18:04:10.138",-0.285,0.063,-0.266,2020-02-08 18:04:10.138
"2/8/2020 18:04:10.150",-0.414,-0.199,-0.313,2020-02-08 18:04:10.150
"2/8/2020 18:04:10.163",-0.516,-0.422,-0.32,2020-02-08 18:04:10.163
"2/8/2020 18:04:10.175",-0.586,-0.559,-0.273,2020-02-08 18:04:10.174
"2/8/2020 18:04:10.188",-0.594,-0.52,-0.176,2020-02-08 18:04:10.187
"2/8/2020 18:04:10.200",-0.59,-0.32,-0.227,2020-02-08 18:04:10.200
"2/8/2020 18:04:10.213",-0.57,-0.164,-0.391,2020-02-08 18:04:10.213
"2/8/2020 18:04:10.225",-0.563,-0.07,-0.578,2020-02-08 18:04:10.224
"2/8/2020 18:04:10.238",-0.555,0.031,-0.723,2020-02-08 18:04:10.237
"2/8/2020 18:04:10.250",-0.496,0.121,-0.805,2020-02-08 18:04:10.250
"2/8/2020 18:04:10.263",-0.504,0.129,-0.906,2020-02-08 18:04:10.263
"2/8/2020 18:04:10.275",-0.551,0.051,-0.969,2020-02-08 18:04:10.275
"2/8/2020 18:04:10.288",-0.625,-0.172,-0.965,2020-02-08 18:04:10.288
"2/8/2020 18:04:10.300",-0.715,-0.266,-0.895,2020-02-08 18:04:10.299
"2/8/2020 18:04:10.313",-0.82,-0.168,-0.82,2020-02-08 18:04:10.312
"2/8/2020 18:04:10.325",-0.84,-0.098,-0.777,2020-02-08 18:04:10.325
"2/8/2020 18:04:10.338",-0.922,-0.18,-0.676,2020-02-08 18:04:10.338
"2/8/2020 18:04:10.350",-0.895,-0.301,-0.539,2020-02-08 18:04:10.349
"2/8/2020 18:04:10.363",-0.98,-0.328,-0.434,2020-02-08 18:04:10.362
"2/8/2020 18:04:10.375",-1.039,-0.301,-0.359,2020-02-08 18:04:10.375
"2/8/2020 18:04:10.388",-1.043,-0.309,-0.254,2020-02-08 18:04:10.388
"2/8/2020 18:04:10.400",-1.055,-0.32,-0.152,2020-02-08 18:04:10.400
"2/8/2020 18:04:10.413",-1.09,-0.301,-0.082,2020-02-08 18:04:10.413
"2/8/2020 18:04:10.425",-1.141,-0.266,-0.02,2020-02-08 18:04:10.424
"2/8/2020 18:04:10.438",-1.18,-0.277,0.023,2020-02-08 18:04:10.437
"2/8/2020 18:04:10.450",-1.184,-0.262,0.086,2020-02-08 18:04:10.450
"2/8/2020 18:04:10.463",-1.141,-0.176,0.18,2020-02-08 18:04:10.463
"2/8/2020 18:04:10.475",-1.098,0.063,0.246,2020-02-08 18:04:10.474
"2/8/2020 18:04:10.488",-1.055,0.34,0.277,2020-02-08 18:04:10.487
"2/8/2020 18:04:10.500",-0.984,0.594,0.301,2020-02-08 18:04:10.500
"2/8/2020 18:04:10.513",-0.895,0.676,0.344,2020-02-08 18:04:10.513
"2/8/2020 18:04:10.525",-0.832,0.648,0.41,2020-02-08 18:04:10.525
"2/8/2020 18:04:10.538",-0.832,0.586,0.566,2020-02-08 18:04:10.538
"2/8/2020 18:04:10.550",-0.887,0.551,0.719,2020-02-08 18:04:10.549
"2/8/2020 18:04:10.563",-0.816,0.445,0.82,2020-02-08 18:04:10.562
"2/8/2020 18:04:10.575",-0.637,0.219,0.938,2020-02-08 18:04:10.575
"2/8/2020 18:04:10.588",-0.516,0.098,1.016,2020-02-08 18:04:10.588
"2/8/2020 18:04:10.600",-0.555,-0.008,1.008,2020-02-08 18:04:10.599
"2/8/2020 18:04:10.613",-0.516,-0.25,1.023,2020-02-08 18:04:10.612
"2/8/2020 18:04:10.625",-0.516,-0.648,1.051,2020-02-08 18:04:10.625
"2/8/2020 18:04:10.638",-0.395,-0.941,1.035,2020-02-08 18:04:10.638
"2/8/2020 18:04:10.650",-0.332,-1.223,0.988,2020-02-08 18:04:10.650
"2/8/2020 18:04:10.663",-0.289,-1.363,0.844,2020-02-08 18:04:10.663
"2/8/2020 18:04:10.675",-0.211,-1.418,0.637,2020-02-08 18:04:10.674
"2/8/2020 18:04:10.688",-0.148,-1.387,0.426,2020-02-08 18:04:10.687
"2/8/2020 18:04:10.700",-0.102,-1.414,0.344,2020-02-08 18:04:10.700
"2/8/2020 18:04:10.713",-0.176,-1.648,0.215,2020-02-08 18:04:10.713
"2/8/2020 18:04:10.725",-0.34,-1.75,-0.051,2020-02-08 18:04:10.724
"2/8/2020 18:04:10.738",-0.379,-1.992,-0.176,2020-02-08 18:04:10.737
"2/8/2020 18:04:10.750",-0.305,-2.406,-0.004,2020-02-08 18:04:10.750
"2/8/2020 18:04:10.763",-0.027,-2.742,0.422,2020-02-08 18:04:10.763
"2/8/2020 18:04:10.775",1.082,-2.266,1.488,2020-02-08 18:04:10.775
"2/8/2020 18:04:10.788",1.887,-1.176,1.668,2020-02-08 18:04:10.788
"2/8/2020 18:04:10.800",0.805,-0.102,1.422,2020-02-08 18:04:10.799
"2/8/2020 18:04:10.813",0.02,0.711,1.094,2020-02-08 18:04:10.812
"2/8/2020 18:04:10.825",-0.344,1.094,0.781,2020-02-08 18:04:10.825
"2/8/2020 18:04:10.838",-0.527,0.5,0.758,2020-02-08 18:04:10.838
"2/8/2020 18:04:10.850",-0.477,0.273,0.707,2020-02-08 18:04:10.849
"2/8/2020 18:04:10.863",-0.355,0.316,0.609,2020-02-08 18:04:10.862
"2/8/2020 18:04:10.875",-0.281,0.461,0.598,2020-02-08 18:04:10.875
"2/8/2020 18:04:10.888",-0.32,0.492,0.672,2020-02-08 18:04:10.888
"2/8/2020 18:04:10.900",-0.383,0.43,0.816,2020-02-08 18:04:10.900
"2/8/2020 18:04:10.913",-0.371,0.453,0.863,2020-02-08 18:04:10.913
"2/8/2020 18:04:10.925",-0.285,0.496,0.852,2020-02-08 18:04:10.924
"2/8/2020 18:04:10.938",-0.141,0.402,0.875,2020-02-08 18:04:10.937
"2/8/2020 18:04:10.950",0.098,0.336,0.887,2020-02-08 18:04:10.950
"2/8/2020 18:04:10.963",0.336,0.262,0.898,2020-02-08 18:04:10.963
"2/8/2020 18:04:10.975",0.523,0.184,0.91,2020-02-08 18:04:10.974
"2/8/2020 18:04:10.988",0.625,0.164,0.813,2020-02-08 18:04:10.987
"2/8/2020 18:04:11.000",0.578,0.121,0.672,2020-02-08 18:04:11.000
"2/8/2020 18:04:11.013",0.398,0.035,0.547,2020-02-08 18:04:11.013
"2/8/2020 18:04:11.025",0.16,-0.004,0.438,2020-02-08 18:04:11.025
"2/8/2020 18:04:11.038",-0.031,-0.035,0.383,2020-02-08 18:04:11.038
"2/8/2020 18:04:11.050",-0.227,-0.156,0.402,2020-02-08 18:04:11.049
"2/8/2020 18:04:11.063",-0.398,-0.262,0.461,2020-02-08 18:04:11.062
"2/8/2020 18:04:11.075",-0.516,-0.305,0.465,2020-02-08 18:04:11.075
"2/8/2020 18:04:11.088",-0.633,-0.383,0.414,2020-02-08 18:04:11.088
"2/8/2020 18:04:11.100",-0.785,-0.488,0.27,2020-02-08 18:04:11.099
"2/8/2020 18:04:11.113",-1.004,-0.543,0.148,2020-02-08 18:04:11.112
"2/8/2020 18:04:11.125",-1.148,-0.637,0.18,2020-02-08 18:04:11.125
"2/8/2020 18:04:11.138",-1.156,-0.695,0.32,2020-02-08 18:04:11.138
"2/8/2020 18:04:11.150",-1.172,-0.605,0.504,2020-02-08 18:04:11.150
"2/8/2020 18:04:11.163",-1.156,-0.488,0.605,2020-02-08 18:04:11.163
"2/8/2020 18:04:11.175",-1.188,-0.352,0.539,2020-02-08 18:04:11.174
"2/8/2020 18:04:11.188",-1.156,-0.383,0.648,2020-02-08 18:04:11.187
"2/8/2020 18:04:11.200",-0.953,-0.438,1.008,2020-02-08 18:04:11.200
"2/8/2020 18:04:11.213",-0.715,-0.355,1.367,2020-02-08 18:04:11.213
"2/8/2020 18:04:11.225",-0.512,-0.297,1.652,2020-02-08 18:04:11.224
"2/8/2020 18:04:11.238",-0.289,-0.375,1.809,2020-02-08 18:04:11.237
"2/8/2020 18:04:11.250",-0.188,-0.504,1.898,2020-02-08 18:04:11.250
"2/8/2020 18:04:11.263",-0.145,-0.648,2.012,2020-02-08 18:04:11.263
"2/8/2020 18:04:11.275",-0.082,-0.68,2.145,2020-02-08 18:04:11.275
"2/8/2020 18:04:11.288",-0.027,-0.727,2.164,2020-02-08 18:04:11.288
"2/8/2020 18:04:11.300",-0.059,-0.828,2.008,2020-02-08 18:04:11.299
"2/8/2020 18:04:11.313",-0.125,-0.945,1.738,2020-02-08 18:04:11.312
"2/8/2020 18:04:11.325",-0.16,-1.012,1.469,2020-02-08 18:04:11.325
"2/8/2020 18:04:11.338",-0.148,-1.055,1.301,2020-02-08 18:04:11.338
"2/8/2020 18:04:11.350",-0.148,-1.008,1.191,2020-02-08 18:04:11.349
"2/8/2020 18:04:11.363",-0.168,-0.824,1.09,2020-02-08 18:04:11.362
"2/8/2020 18:04:11.375",-0.254,-0.73,1.023,2020-02-08 18:04:11.375
"2/8/2020 18:04:11.388",-0.359,-0.668,0.984,2020-02-08 18:04:11.388
"2/8/2020 18:04:11.400",-0.453,-0.555,0.988,2020-02-08 18:04:11.400
"2/8/2020 18:04:11.413",-0.512,-0.402,1.027,2020-02-08 18:04:11.413
"2/8/2020 18:04:11.425",-0.539,-0.27,1.074,2020-02-08 18:04:11.424
"2/8/2020 18:04:11.438",-0.59,-0.195,1.109,2020-02-08 18:04:11.437
"2/8/2020 18:04:11.450",-0.691,-0.129,1.141,2020-02-08 18:04:11.450
"2/8/2020 18:04:11.463",-0.754,0.016,1.207,2020-02-08 18:04:11.463
"2/8/2020 18:04:11.475",-0.734,0.164,1.316,2020-02-08 18:04:11.474
"2/8/2020 18:04:11.488",-0.664,0.262,1.457,2020-02-08 18:04:11.487
"2/8/2020 18:04:11.500",-0.574,0.367,1.527,2020-02-08 18:04:11.500
"2/8/2020 18:04:11.513",-0.523,0.449,1.527,2020-02-08 18:04:11.513
"2/8/2020 18:04:11.525",-0.539,0.539,1.508,2020-02-08 18:04:11.525
"2/8/2020 18:04:11.538",-0.512,0.609,1.535,2020-02-08 18:04:11.538
"2/8/2020 18:04:11.550",-0.414,0.641,1.582,2020-02-08 18:04:11.549
"2/8/2020 18:04:11.563",-0.289,0.691,1.609,2020-02-08 18:04:11.562
"2/8/2020 18:04:11.575",-0.164,0.715,1.586,2020-02-08 18:04:11.575
"2/8/2020 18:04:11.588",-0.066,0.695,1.523,2020-02-08 18:04:11.588
"2/8/2020 18:04:11.600",0.027,0.66,1.438,2020-02-08 18:04:11.599
"2/8/2020 18:04:11.613",0.098,0.578,1.336,2020-02-08 18:04:11.612
"2/8/2020 18:04:11.625",0.105,0.461,1.266,2020-02-08 18:04:11.625
"2/8/2020 18:04:11.638",0.094,0.367,1.188,2020-02-08 18:04:11.638
"2/8/2020 18:04:11.650",0.07,0.328,1.133,2020-02-08 18:04:11.650
"2/8/2020 18:04:11.663",0.059,0.297,1.063,2020-02-08 18:04:11.663
"2/8/2020 18:04:11.675",0.004,0.254,0.996,2020-02-08 18:04:11.674
"2/8/2020 18:04:11.688",-0.016,0.227,0.957,2020-02-08 18:04:11.687
"2/8/2020 18:04:11.700",-0.031,0.219,0.941,2020-02-08 18:04:11.700
"2/8/2020 18:04:11.713",-0.063,0.215,0.926,2020-02-08 18:04:11.713
"2/8/2020 18:04:11.725",-0.082,0.215,0.914,2020-02-08 18:04:11.724
"2/8/2020 18:04:11.738",-0.074,0.203,0.914,2020-02-08 18:04:11.737
"2/8/2020 18:04:11.750",-0.051,0.18,0.91,2020-02-08 18:04:11.750
"2/8/2020 18:04:11.763",0,0.145,0.902,2020-02-08 18:04:11.763
"2/8/2020 18:04:11.775",0.047,0.129,0.883,2020-02-08 18:04:11.775
"2/8/2020 18:04:11.788",0.102,0.113,0.883,2020-02-08 18:04:11.788
"2/8/2020 18:04:11.800",0.141,0.066,0.871,2020-02-08 18:04:11.799
"2/8/2020 18:04:11.813",0.152,0.016,0.848,2020-02-08 18:04:11.812
"2/8/2020 18:04:11.825",0.18,0,0.809,2020-02-08 18:04:11.825
"2/8/2020 18:04:11.838",0.211,-0.027,0.781,2020-02-08 18:04:11.838
"2/8/2020 18:04:11.850",0.211,-0.055,0.75,2020-02-08 18:04:11.849
"2/8/2020 18:04:11.863",0.223,-0.086,0.742,2020-02-08 18:04:11.862
"2/8/2020 18:04:11.875",0.223,-0.141,0.742,2020-02-08 18:04:11.875
"2/8/2020 18:04:11.888",0.227,-0.188,0.742,2020-02-08 18:04:11.888
"2/8/2020 18:04:11.900",0.293,-0.234,0.805,2020-02-08 18:04:11.900
"2/8/2020 18:04:11.913",0.391,-0.281,0.922,2020-02-08 18:04:11.913
"2/8/2020 18:04:11.925",0.496,-0.332,1.09,2020-02-08 18:04:11.924
"2/8/2020 18:04:11.938",0.625,-0.414,1.297,2020-02-08 18:04:11.937
"2/8/2020 18:04:11.950",0.703,-0.531,1.41,2020-02-08 18:04:11.950
"2/8/2020 18:04:11.963",0.762,-0.688,1.59,2020-02-08 18:04:11.963
"2/8/2020 18:04:11.975",0.902,-0.867,1.914,2020-02-08 18:04:11.974
"2/8/2020 18:04:11.988",1.141,-1.043,2.23,2020-02-08 18:04:11.987
"2/8/2020 18:04:12.000",1.477,-1.336,2.426,2020-02-08 18:04:12.000
"2/8/2020 18:04:12.013",1.832,-1.836,2.281,2020-02-08 18:04:12.013
"2/8/2020 18:04:12.025",2.172,-2.383,1.938,2020-02-08 18:04:12.025
"2/8/2020 18:04:12.038",2.984,-2.191,1.664,2020-02-08 18:04:12.038
"2/8/2020 18:04:12.050",3.918,-1.551,1.414,2020-02-08 18:04:12.049
"2/8/2020 18:04:12.063",4.023,-1.008,1.102,2020-02-08 18:04:12.062
"2/8/2020 18:04:12.075",3.219,-0.629,0.918,2020-02-08 18:04:12.075
"2/8/2020 18:04:12.088",2.645,-0.191,0.93,2020-02-08 18:04:12.088
"2/8/2020 18:04:12.100",3.227,0.211,0.938,2020-02-08 18:04:12.099
"2/8/2020 18:04:12.113",3.398,0.668,0.676,2020-02-08 18:04:12.112
"2/8/2020 18:04:12.125",3.133,1.227,0.148,2020-02-08 18:04:12.125
"2/8/2020 18:04:12.138",2.598,1.754,-0.527,2020-02-08 18:04:12.138
"2/8/2020 18:04:12.150",2.152,2.375,-1.309,2020-02-08 18:04:12.150
"2/8/2020 18:04:12.163",1.813,2.707,-1.91,2020-02-08 18:04:12.163
"2/8/2020 18:04:12.175",1.5,2.488,-2.332,2020-02-08 18:04:12.174
"2/8/2020 18:04:12.188",1.129,1.813,-2.668,2020-02-08 18:04:12.187
"2/8/2020 18:04:12.200",0.582,1.273,-2.996,2020-02-08 18:04:12.200
"2/8/2020 18:04:12.213",0.313,0.586,-3.211,2020-02-08 18:04:12.213
"2/8/2020 18:04:12.225",-0.012,0.07,-3.277,2020-02-08 18:04:12.224
"2/8/2020 18:04:12.238",-0.359,-0.074,-3.238,2020-02-08 18:04:12.237
"2/8/2020 18:04:12.250",-0.43,-0.008,-2.875,2020-02-08 18:04:12.250
"2/8/2020 18:04:12.263",-0.23,-0.215,-2.535,2020-02-08 18:04:12.263
"2/8/2020 18:04:12.275",-0.23,-0.785,-2.41,2020-02-08 18:04:12.275
"2/8/2020 18:04:12.288",-0.328,-1.656,-2.391,2020-02-08 18:04:12.288
"2/8/2020 18:04:12.300",-0.438,-2.289,-2.496,2020-02-08 18:04:12.299
"2/8/2020 18:04:12.313",-0.453,-2.434,-2.367,2020-02-08 18:04:12.312
"2/8/2020 18:04:12.325",-0.488,-2.387,-2.113,2020-02-08 18:04:12.325
"2/8/2020 18:04:12.338",-0.59,-2.516,-1.859,2020-02-08 18:04:12.338
"2/8/2020 18:04:12.350",-0.523,-2.574,-1.691,2020-02-08 18:04:12.349
"2/8/2020 18:04:12.363",-0.613,-2.57,-1.648,2020-02-08 18:04:12.362
"2/8/2020 18:04:12.375",-0.914,-2.594,-1.668,2020-02-08 18:04:12.375
"2/8/2020 18:04:12.388",-1.047,-2.742,-1.707,2020-02-08 18:04:12.388
"2/8/2020 18:04:12.400",-1.09,-2.82,-1.836,2020-02-08 18:04:12.400
"2/8/2020 18:04:12.413",-1.09,-2.77,-2.012,2020-02-08 18:04:12.413
"2/8/2020 18:04:12.425",-1.094,-2.559,-2.16,2020-02-08 18:04:12.424
"2/8/2020 18:04:12.438",-1.078,-2.313,-2.18,2020-02-08 18:04:12.437
"2/8/2020 18:04:12.450",-1.105,-2.125,-2.094,2020-02-08 18:04:12.450
"2/8/2020 18:04:12.463",-1.129,-1.914,-1.91,2020-02-08 18:04:12.463
"2/8/2020 18:04:12.475",-1.098,-1.738,-1.598,2020-02-08 18:04:12.474
"2/8/2020 18:04:12.488",-1.055,-1.527,-1.289,2020-02-08 18:04:12.487
"2/8/2020 18:04:12.500",-1.035,-1.453,-0.996,2020-02-08 18:04:12.500
"2/8/2020 18:04:12.513",-0.957,-1.445,-0.773,2020-02-08 18:04:12.513
"2/8/2020 18:04:12.525",-0.824,-1.43,-0.605,2020-02-08 18:04:12.525
"2/8/2020 18:04:12.538",-0.684,-1.43,-0.418,2020-02-08 18:04:12.538
"2/8/2020 18:04:12.550",-0.535,-1.414,-0.148,2020-02-08 18:04:12.549
"2/8/2020 18:04:12.563",-0.457,-1.285,0.055,2020-02-08 18:04:12.562
"2/8/2020 18:04:12.575",-0.434,-1.172,0.25,2020-02-08 18:04:12.575
"2/8/2020 18:04:12.588",-0.395,-1.027,0.453,2020-02-08 18:04:12.588
"2/8/2020 18:04:12.600",-0.332,-0.848,0.637,2020-02-08 18:04:12.599
"2/8/2020 18:04:12.613",-0.246,-0.641,0.852,2020-02-08 18:04:12.612
"2/8/2020 18:04:12.625",-0.152,-0.449,1.137,2020-02-08 18:04:12.625
"2/8/2020 18:04:12.638",-0.141,-0.359,1.422,2020-02-08 18:04:12.638
"2/8/2020 18:04:12.650",-0.215,-0.281,1.582,2020-02-08 18:04:12.650
"2/8/2020 18:04:12.663",-0.25,-0.121,1.613,2020-02-08 18:04:12.663
"2/8/2020 18:04:12.675",-0.273,0.094,1.578,2020-02-08 18:04:12.674
"2/8/2020 18:04:12.688",-0.258,0.105,1.629,2020-02-08 18:04:12.687
"2/8/2020 18:04:12.700",-0.223,0.008,1.73,2020-02-08 18:04:12.700
"2/8/2020 18:04:12.713",-0.195,-0.078,1.742,2020-02-08 18:04:12.713
"2/8/2020 18:04:12.725",-0.168,-0.133,1.711,2020-02-08 18:04:12.724
"2/8/2020 18:04:12.738",-0.152,-0.207,1.664,2020-02-08 18:04:12.737
"2/8/2020 18:04:12.750",-0.137,-0.27,1.621,2020-02-08 18:04:12.750
"2/8/2020 18:04:12.763",-0.082,-0.324,1.598,2020-02-08 18:04:12.763
"2/8/2020 18:04:12.775",-0.02,-0.348,1.574,2020-02-08 18:04:12.775
"2/8/2020 18:04:12.788",0.047,-0.348,1.5,2020-02-08 18:04:12.788
"2/8/2020 18:04:12.800",0.09,-0.277,1.379,2020-02-08 18:04:12.799
"2/8/2020 18:04:12.813",0.125,-0.242,1.313,2020-02-08 18:04:12.812
"2/8/2020 18:04:12.825",0.18,-0.172,1.305,2020-02-08 18:04:12.825
"2/8/2020 18:04:12.838",0.238,-0.039,1.352,2020-02-08 18:04:12.838
"2/8/2020 18:04:12.850",0.297,0.09,1.414,2020-02-08 18:04:12.849
"2/8/2020 18:04:12.863",0.316,0.176,1.461,2020-02-08 18:04:12.862
"2/8/2020 18:04:12.875",0.32,0.234,1.512,2020-02-08 18:04:12.875
"2/8/2020 18:04:12.888",0.324,0.254,1.531,2020-02-08 18:04:12.888
"2/8/2020 18:04:12.900",0.309,0.285,1.492,2020-02-08 18:04:12.900
"2/8/2020 18:04:12.913",0.313,0.328,1.449,2020-02-08 18:04:12.913
"2/8/2020 18:04:12.925",0.32,0.293,1.488,2020-02-08 18:04:12.924
"2/8/2020 18:04:12.938",0.324,0.211,1.566,2020-02-08 18:04:12.937
"2/8/2020 18:04:12.950",0.301,0.152,1.613,2020-02-08 18:04:12.950
"2/8/2020 18:04:12.963",0.262,0.094,1.621,2020-02-08 18:04:12.963
"2/8/2020 18:04:12.975",0.262,0.012,1.621,2020-02-08 18:04:12.974
"2/8/2020 18:04:12.988",0.277,-0.055,1.594,2020-02-08 18:04:12.987
"2/8/2020 18:04:13.000",0.246,-0.074,1.52,2020-02-08 18:04:13.000
"2/8/2020 18:04:13.013",0.211,-0.113,1.449,2020-02-08 18:04:13.013
"2/8/2020 18:04:13.025",0.23,-0.191,1.41,2020-02-08 18:04:13.025
"2/8/2020 18:04:13.038",0.238,-0.273,1.363,2020-02-08 18:04:13.038
"2/8/2020 18:04:13.050",0.219,-0.367,1.309,2020-02-08 18:04:13.049
"2/8/2020 18:04:13.063",0.207,-0.445,1.242,2020-02-08 18:04:13.062
"2/8/2020 18:04:13.075",0.211,-0.5,1.141,2020-02-08 18:04:13.075
"2/8/2020 18:04:13.088",0.234,-0.539,1.059,2020-02-08 18:04:13.088
"2/8/2020 18:04:13.100",0.285,-0.598,1.047,2020-02-08 18:04:13.099
"2/8/2020 18:04:13.113",0.34,-0.656,1.07,2020-02-08 18:04:13.112
"2/8/2020 18:04:13.125",0.355,-0.68,1.063,2020-02-08 18:04:13.125
"2/8/2020 18:04:13.138",0.34,-0.684,1.051,2020-02-08 18:04:13.138
"2/8/2020 18:04:13.150",0.391,-0.668,1.043,2020-02-08 18:04:13.150
"2/8/2020 18:04:13.163",0.445,-0.629,1.027,2020-02-08 18:04:13.163
"2/8/2020 18:04:13.175",0.488,-0.57,1.012,2020-02-08 18:04:13.174
"2/8/2020 18:04:13.188",0.516,-0.527,1,2020-02-08 18:04:13.187
"2/8/2020 18:04:13.200",0.527,-0.488,1.039,2020-02-08 18:04:13.200
"2/8/2020 18:04:13.213",0.59,-0.375,1.137,2020-02-08 18:04:13.213
"2/8/2020 18:04:13.225",0.691,-0.27,1.215,2020-02-08 18:04:13.224
"2/8/2020 18:04:13.238",0.742,-0.301,1.234,2020-02-08 18:04:13.237
"2/8/2020 18:04:13.250",0.723,-0.422,1.18,2020-02-08 18:04:13.250
"2/8/2020 18:04:13.263",0.68,-0.547,1.074,2020-02-08 18:04:13.263
"2/8/2020 18:04:13.275",0.66,-0.656,0.938,2020-02-08 18:04:13.275
"2/8/2020 18:04:13.288",0.656,-0.746,0.734,2020-02-08 18:04:13.288
"2/8/2020 18:04:13.300",0.695,-0.816,0.586,2020-02-08 18:04:13.299
"2/8/2020 18:04:13.313",0.781,-0.902,0.449,2020-02-08 18:04:13.312
"2/8/2020 18:04:13.325",0.883,-0.992,0.305,2020-02-08 18:04:13.325
"2/8/2020 18:04:13.338",1.035,-1.074,0.16,2020-02-08 18:04:13.338
"2/8/2020 18:04:13.350",1.18,-1.121,-0.113,2020-02-08 18:04:13.349
"2/8/2020 18:04:13.363",1.227,-1.055,-0.363,2020-02-08 18:04:13.362
"2/8/2020 18:04:13.375",1.313,-0.922,-0.414,2020-02-08 18:04:13.375
"2/8/2020 18:04:13.388",1.563,-0.867,-0.391,2020-02-08 18:04:13.388
"2/8/2020 18:04:13.400",1.859,-0.938,-0.43,2020-02-08 18:04:13.400
"2/8/2020 18:04:13.413",2.152,-0.98,-0.578,2020-02-08 18:04:13.413
"2/8/2020 18:04:13.425",2.414,-0.922,-0.879,2020-02-08 18:04:13.424
"2/8/2020 18:04:13.438",2.555,-0.59,-1.223,2020-02-08 18:04:13.437
"2/8/2020 18:04:13.450",2.766,-0.125,-1.539,2020-02-08 18:04:13.450
"2/8/2020 18:04:13.463",3.012,0.41,-1.926,2020-02-08 18:04:13.463
"2/8/2020 18:04:13.475",3.039,0.867,-2.363,2020-02-08 18:04:13.474
"2/8/2020 18:04:13.488",2.781,1.105,-2.711,2020-02-08 18:04:13.487
"2/8/2020 18:04:13.500",2.383,1.246,-2.813,2020-02-08 18:04:13.500
"2/8/2020 18:04:13.513",2.105,1.43,-2.824,2020-02-08 18:04:13.513
"2/8/2020 18:04:13.525",2.09,1.48,-2.813,2020-02-08 18:04:13.525
"2/8/2020 18:04:13.538",2.184,1.105,-2.855,2020-02-08 18:04:13.538
"2/8/2020 18:04:13.550",2.203,0.789,-2.973,2020-02-08 18:04:13.549
"2/8/2020 18:04:13.563",2.164,0.754,-3.063,2020-02-08 18:04:13.562
"2/8/2020 18:04:13.575",2.211,0.703,-3.082,2020-02-08 18:04:13.575
"2/8/2020 18:04:13.588",2.395,0.688,-3.027,2020-02-08 18:04:13.588
"2/8/2020 18:04:13.600",2.594,0.539,-2.953,2020-02-08 18:04:13.599
"2/8/2020 18:04:13.613",2.781,0.332,-2.844,2020-02-08 18:04:13.612
"2/8/2020 18:04:13.625",2.84,0.133,-2.715,2020-02-08 18:04:13.625
"2/8/2020 18:04:13.638",2.828,-0.027,-2.578,2020-02-08 18:04:13.638
"2/8/2020 18:04:13.650",2.805,-0.074,-2.48,2020-02-08 18:04:13.650
"2/8/2020 18:04:13.663",2.668,-0.02,-2.41,2020-02-08 18:04:13.663
"2/8/2020 18:04:13.675",2.43,0.063,-2.305,2020-02-08 18:04:13.674
"2/8/2020 18:04:13.688",2.254,0.137,-2.133,2020-02-08 18:04:13.687
"2/8/2020 18:04:13.700",2.145,0.129,-1.98,2020-02-08 18:04:13.700
"2/8/2020 18:04:13.713",2.027,0.074,-1.926,2020-02-08 18:04:13.713
"2/8/2020 18:04:13.725",1.93,-0.043,-1.973,2020-02-08 18:04:13.724
"2/8/2020 18:04:13.738",1.887,-0.191,-2.066,2020-02-08 18:04:13.737
"2/8/2020 18:04:13.750",1.898,-0.34,-2.145,2020-02-08 18:04:13.750
"2/8/2020 18:04:13.763",1.949,-0.523,-2.168,2020-02-08 18:04:13.763
"2/8/2020 18:04:13.775",2.039,-0.613,-2.191,2020-02-08 18:04:13.775
"2/8/2020 18:04:13.788",2.094,-0.723,-2.203,2020-02-08 18:04:13.788
"2/8/2020 18:04:13.800",2.105,-0.828,-2.234,2020-02-08 18:04:13.799
"2/8/2020 18:04:13.813",2.043,-0.891,-2.215,2020-02-08 18:04:13.812
"2/8/2020 18:04:13.825",1.918,-0.879,-2.148,2020-02-08 18:04:13.825
"2/8/2020 18:04:13.838",1.691,-0.844,-2.008,2020-02-08 18:04:13.838
"2/8/2020 18:04:13.850",1.527,-0.805,-1.766,2020-02-08 18:04:13.849
"2/8/2020 18:04:13.863",1.316,-0.672,-1.648,2020-02-08 18:04:13.862
"2/8/2020 18:04:13.875",1.09,-0.531,-1.625,2020-02-08 18:04:13.875
"2/8/2020 18:04:13.888",0.949,-0.379,-1.699,2020-02-08 18:04:13.888
"2/8/2020 18:04:13.900",0.805,-0.438,-1.797,2020-02-08 18:04:13.900
"2/8/2020 18:04:13.913",0.633,-0.711,-1.676,2020-02-08 18:04:13.913
"2/8/2020 18:04:13.925",0.398,-0.922,-1.367,2020-02-08 18:04:13.924
"2/8/2020 18:04:13.938",0.223,-0.879,-0.98,2020-02-08 18:04:13.937
"2/8/2020 18:04:13.950",0.086,-0.723,-0.707,2020-02-08 18:04:13.950
"2/8/2020 18:04:13.963",0.02,-0.699,-0.527,2020-02-08 18:04:13.963
"2/8/2020 18:04:13.975",-0.02,-0.621,-0.512,2020-02-08 18:04:13.974
"2/8/2020 18:04:13.988",-0.055,-0.621,-0.512,2020-02-08 18:04:13.987
"2/8/2020 18:04:14.000",-0.078,-0.73,-0.453,2020-02-08 18:04:14.000
"2/8/2020 18:04:14.013",-0.203,-0.836,-0.367,2020-02-08 18:04:14.013
"2/8/2020 18:04:14.025",-0.301,-1.004,-0.316,2020-02-08 18:04:14.025
"2/8/2020 18:04:14.038",-0.406,-1.027,-0.285,2020-02-08 18:04:14.038
"2/8/2020 18:04:14.050",-0.449,-0.871,-0.164,2020-02-08 18:04:14.049
"2/8/2020 18:04:14.063",-0.41,-0.766,0.012,2020-02-08 18:04:14.062
"2/8/2020 18:04:14.075",-0.402,-0.762,0.141,2020-02-08 18:04:14.075
"2/8/2020 18:04:14.088",-0.445,-0.699,0.035,2020-02-08 18:04:14.088
"2/8/2020 18:04:14.100",-0.516,-0.652,-0.109,2020-02-08 18:04:14.099
"2/8/2020 18:04:14.113",-0.406,-0.637,-0.059,2020-02-08 18:04:14.112
"2/8/2020 18:04:14.125",-0.23,-0.547,0.195,2020-02-08 18:04:14.125
"2/8/2020 18:04:14.138",-0.09,-0.426,0.645,2020-02-08 18:04:14.138
"2/8/2020 18:04:14.150",-0.012,-0.273,1.164,2020-02-08 18:04:14.150
"2/8/2020 18:04:14.163",-0.031,-0.234,1.496,2020-02-08 18:04:14.163
"2/8/2020 18:04:14.175",-0.059,-0.391,1.574,2020-02-08 18:04:14.174
"2/8/2020 18:04:14.188",0.129,-0.5,1.609,2020-02-08 18:04:14.187
"2/8/2020 18:04:14.200",0.383,-0.59,1.766,2020-02-08 18:04:14.200
"2/8/2020 18:04:14.213",0.484,-0.598,2.074,2020-02-08 18:04:14.213
"2/8/2020 18:04:14.225",0.391,-0.586,2.246,2020-02-08 18:04:14.224
"2/8/2020 18:04:14.238",0.223,-0.68,2.246,2020-02-08 18:04:14.237
"2/8/2020 18:04:14.250",0.125,-0.719,2.129,2020-02-08 18:04:14.250
"2/8/2020 18:04:14.263",0.113,-0.652,2.078,2020-02-08 18:04:14.263
"2/8/2020 18:04:14.275",0.184,-0.535,2.199,2020-02-08 18:04:14.275
"2/8/2020 18:04:14.288",0.184,-0.551,2.246,2020-02-08 18:04:14.288
"2/8/2020 18:04:14.300",0.145,-0.57,2.148,2020-02-08 18:04:14.299
"2/8/2020 18:04:14.313",0.102,-0.52,1.945,2020-02-08 18:04:14.312
"2/8/2020 18:04:14.325",0,-0.438,1.832,2020-02-08 18:04:14.325
"2/8/2020 18:04:14.338",-0.016,-0.313,1.824,2020-02-08 18:04:14.338
"2/8/2020 18:04:14.350",0.039,-0.199,1.867,2020-02-08 18:04:14.349
"2/8/2020 18:04:14.363",0.129,-0.156,1.848,2020-02-08 18:04:14.362
"2/8/2020 18:04:14.375",0.215,-0.168,1.688,2020-02-08 18:04:14.375
"2/8/2020 18:04:14.388",0.281,-0.285,1.473,2020-02-08 18:04:14.388
"2/8/2020 18:04:14.400",0.336,-0.406,1.242,2020-02-08 18:04:14.400
"2/8/2020 18:04:14.413",0.418,-0.449,0.98,2020-02-08 18:04:14.413
"2/8/2020 18:04:14.425",0.563,-0.449,0.758,2020-02-08 18:04:14.424
"2/8/2020 18:04:14.438",0.777,-0.523,0.512,2020-02-08 18:04:14.437
"2/8/2020 18:04:14.450",1.059,-0.57,0.215,2020-02-08 18:04:14.450
"2/8/2020 18:04:14.463",1.41,-0.492,-0.086,2020-02-08 18:04:14.463
"2/8/2020 18:04:14.475",1.871,-0.43,-0.301,2020-02-08 18:04:14.474
"2/8/2020 18:04:14.488",2.215,-0.473,-0.473,2020-02-08 18:04:14.487
"2/8/2020 18:04:14.500",2.422,-0.5,-0.629,2020-02-08 18:04:14.500
"2/8/2020 18:04:14.513",2.633,-0.445,-0.754,2020-02-08 18:04:14.513
"2/8/2020 18:04:14.525",3.086,-0.234,-0.855,2020-02-08 18:04:14.525
"2/8/2020 18:04:14.538",3.703,0.191,-1.023,2020-02-08 18:04:14.538
"2/8/2020 18:04:14.550",4.238,0.77,-1.289,2020-02-08 18:04:14.549
"2/8/2020 18:04:14.563",4.508,1.098,-1.566,2020-02-08 18:04:14.562
"2/8/2020 18:04:14.575",4.426,1.184,-1.77,2020-02-08 18:04:14.575
"2/8/2020 18:04:14.588",4.289,1.176,-1.867,2020-02-08 18:04:14.588
"2/8/2020 18:04:14.600",4.406,0.883,-1.906,2020-02-08 18:04:14.599
"2/8/2020 18:04:14.613",4.727,0.715,-2.184,2020-02-08 18:04:14.612
"2/8/2020 18:04:14.625",4.953,0.672,-2.602,2020-02-08 18:04:14.625
"2/8/2020 18:04:14.638",4.984,0.566,-3.094,2020-02-08 18:04:14.638
"2/8/2020 18:04:14.650",4.754,0.535,-3.492,2020-02-08 18:04:14.650
"2/8/2020 18:04:14.663",4.598,0.484,-3.797,2020-02-08 18:04:14.663
"2/8/2020 18:04:14.675",4.539,0.367,-4.188,2020-02-08 18:04:14.674
"2/8/2020 18:04:14.688",4.293,0.41,-4.699,2020-02-08 18:04:14.687
"2/8/2020 18:04:14.700",3.898,0.453,-5.031,2020-02-08 18:04:14.700
"2/8/2020 18:04:14.713",3.355,0.391,-4.965,2020-02-08 18:04:14.713
"2/8/2020 18:04:14.725",2.742,0.391,-4.379,2020-02-08 18:04:14.724
"2/8/2020 18:04:14.738",2.777,0.543,-3.332,2020-02-08 18:04:14.737
"2/8/2020 18:04:14.750",2.988,0.43,-2.535,2020-02-08 18:04:14.750
"2/8/2020 18:04:14.763",2.715,0.191,-2.242,2020-02-08 18:04:14.763
"2/8/2020 18:04:14.775",2.574,0.023,-2.262,2020-02-08 18:04:14.775
"2/8/2020 18:04:14.788",2.531,-0.27,-2.383,2020-02-08 18:04:14.788
"2/8/2020 18:04:14.800",2.488,-0.703,-2.566,2020-02-08 18:04:14.799
"2/8/2020 18:04:14.813",2.391,-1.031,-2.73,2020-02-08 18:04:14.812
"2/8/2020 18:04:14.825",2.316,-1.145,-2.824,2020-02-08 18:04:14.825
"2/8/2020 18:04:14.838",2.223,-1.246,-2.758,2020-02-08 18:04:14.838
"2/8/2020 18:04:14.850",2.055,-1.461,-2.586,2020-02-08 18:04:14.849
"2/8/2020 18:04:14.863",1.84,-1.59,-2.34,2020-02-08 18:04:14.862
"2/8/2020 18:04:14.875",1.625,-1.484,-2.219,2020-02-08 18:04:14.875
"2/8/2020 18:04:14.888",1.461,-1.289,-2.18,2020-02-08 18:04:14.888
"2/8/2020 18:04:14.900",1.41,-1.145,-2.078,2020-02-08 18:04:14.900
"2/8/2020 18:04:14.913",1.355,-1.055,-1.949,2020-02-08 18:04:14.913
"2/8/2020 18:04:14.925",1.328,-0.992,-1.773,2020-02-08 18:04:14.924
"2/8/2020 18:04:14.938",1.301,-0.902,-1.645,2020-02-08 18:04:14.937
"2/8/2020 18:04:14.950",1.188,-0.816,-1.668,2020-02-08 18:04:14.950
"2/8/2020 18:04:14.963",1.008,-0.816,-1.75,2020-02-08 18:04:14.963
"2/8/2020 18:04:14.975",0.875,-0.953,-1.691,2020-02-08 18:04:14.974
"2/8/2020 18:04:14.988",0.695,-1.086,-1.566,2020-02-08 18:04:14.987
"2/8/2020 18:04:15.000",0.496,-1.016,-1.43,2020-02-08 18:04:15.000
"2/8/2020 18:04:15.013",0.316,-0.832,-1.316,2020-02-08 18:04:15.013
"2/8/2020 18:04:15.025",0.137,-0.715,-1.219,2020-02-08 18:04:15.025
"2/8/2020 18:04:15.038",-0.008,-0.699,-1.105,2020-02-08 18:04:15.038
"2/8/2020 18:04:15.050",-0.133,-0.715,-0.98,2020-02-08 18:04:15.049
"2/8/2020 18:04:15.063",-0.242,-0.789,-0.953,2020-02-08 18:04:15.062
"2/8/2020 18:04:15.075",-0.375,-0.883,-0.949,2020-02-08 18:04:15.075
"2/8/2020 18:04:15.088",-0.492,-0.957,-0.988,2020-02-08 18:04:15.088
"2/8/2020 18:04:15.100",-0.613,-0.941,-1.02,2020-02-08 18:04:15.099
"2/8/2020 18:04:15.113",-0.68,-0.91,-0.992,2020-02-08 18:04:15.112
"2/8/2020 18:04:15.125",-0.777,-0.918,-0.898,2020-02-08 18:04:15.125
"2/8/2020 18:04:15.138",-0.887,-0.969,-0.727,2020-02-08 18:04:15.138
"2/8/2020 18:04:15.150",-0.84,-0.992,-0.461,2020-02-08 18:04:15.150
"2/8/2020 18:04:15.163",-0.754,-0.93,-0.199,2020-02-08 18:04:15.163
"2/8/2020 18:04:15.175",-0.73,-0.836,-0.008,2020-02-08 18:04:15.174
"2/8/2020 18:04:15.188",-0.836,-0.805,0.055,2020-02-08 18:04:15.187
"2/8/2020 18:04:15.200",-0.977,-0.832,0.016,2020-02-08 18:04:15.200
"2/8/2020 18:04:15.213",-1.008,-0.809,0.047,2020-02-08 18:04:15.213
"2/8/2020 18:04:15.225",-0.945,-0.789,0.238,2020-02-08 18:04:15.224
"2/8/2020 18:04:15.238",-0.813,-0.73,0.555,2020-02-08 18:04:15.237
"2/8/2020 18:04:15.250",-0.711,-0.703,0.867,2020-02-08 18:04:15.250
"2/8/2020 18:04:15.263",-0.695,-0.691,1.027,2020-02-08 18:04:15.263
"2/8/2020 18:04:15.275",-0.672,-0.664,1.012,2020-02-08 18:04:15.275
"2/8/2020 18:04:15.288",-0.566,-0.684,0.941,2020-02-08 18:04:15.288
"2/8/2020 18:04:15.300",-0.41,-0.699,0.906,2020-02-08 18:04:15.299
"2/8/2020 18:04:15.313",-0.266,-0.664,0.934,2020-02-08 18:04:15.312
"2/8/2020 18:04:15.325",-0.207,-0.672,1,2020-02-08 18:04:15.325
"2/8/2020 18:04:15.338",-0.188,-0.676,1.027,2020-02-08 18:04:15.338
"2/8/2020 18:04:15.350",-0.16,-0.59,0.941,2020-02-08 18:04:15.349
"2/8/2020 18:04:15.363",-0.109,-0.523,0.793,2020-02-08 18:04:15.362
"2/8/2020 18:04:15.375",-0.031,-0.508,0.652,2020-02-08 18:04:15.375
"2/8/2020 18:04:15.388",0.063,-0.516,0.609,2020-02-08 18:04:15.388
"2/8/2020 18:04:15.400",0.141,-0.496,0.656,2020-02-08 18:04:15.400
"2/8/2020 18:04:15.413",0.238,-0.359,0.723,2020-02-08 18:04:15.413
"2/8/2020 18:04:15.425",0.301,-0.223,0.715,2020-02-08 18:04:15.424
"2/8/2020 18:04:15.438",0.375,-0.16,0.633,2020-02-08 18:04:15.437
"2/8/2020 18:04:15.450",0.461,-0.133,0.566,2020-02-08 18:04:15.450
"2/8/2020 18:04:15.463",0.582,-0.164,0.688,2020-02-08 18:04:15.463
"2/8/2020 18:04:15.475",0.742,-0.063,0.926,2020-02-08 18:04:15.474
"2/8/2020 18:04:15.488",0.785,0.047,1.148,2020-02-08 18:04:15.487
"2/8/2020 18:04:15.500",0.766,0.051,1.32,2020-02-08 18:04:15.500
"2/8/2020 18:04:15.513",0.816,-0.086,1.395,2020-02-08 18:04:15.513
"2/8/2020 18:04:15.525",0.832,-0.25,1.383,2020-02-08 18:04:15.525
"2/8/2020 18:04:15.538",0.816,-0.41,1.379,2020-02-08 18:04:15.538
"2/8/2020 18:04:15.550",0.754,-0.523,1.371,2020-02-08 18:04:15.549
"2/8/2020 18:04:15.563",0.641,-0.582,1.344,2020-02-08 18:04:15.562
"2/8/2020 18:04:15.575",0.496,-0.621,1.25,2020-02-08 18:04:15.575
"2/8/2020 18:04:15.588",0.359,-0.598,1.168,2020-02-08 18:04:15.588
"2/8/2020 18:04:15.600",0.277,-0.59,1.09,2020-02-08 18:04:15.599
"2/8/2020 18:04:15.613",0.242,-0.602,1.035,2020-02-08 18:04:15.612
"2/8/2020 18:04:15.625",0.234,-0.605,1.145,2020-02-08 18:04:15.625
"2/8/2020 18:04:15.638",0.293,-0.641,1.371,2020-02-08 18:04:15.638
"2/8/2020 18:04:15.650",0.371,-0.699,1.516,2020-02-08 18:04:15.650
"2/8/2020 18:04:15.663",0.402,-0.734,1.531,2020-02-08 18:04:15.663
"2/8/2020 18:04:15.675",0.434,-0.793,1.449,2020-02-08 18:04:15.674
"2/8/2020 18:04:15.688",0.434,-0.953,1.285,2020-02-08 18:04:15.687
"2/8/2020 18:04:15.700",0.5,-1.066,1.258,2020-02-08 18:04:15.700
"2/8/2020 18:04:15.713",0.621,-1.148,1.402,2020-02-08 18:04:15.713
"2/8/2020 18:04:15.725",0.754,-1.203,1.555,2020-02-08 18:04:15.724
"2/8/2020 18:04:15.738",0.82,-1.262,1.586,2020-02-08 18:04:15.737
"2/8/2020 18:04:15.750",0.824,-1.391,1.516,2020-02-08 18:04:15.750
"2/8/2020 18:04:15.763",0.809,-1.445,1.359,2020-02-08 18:04:15.763
"2/8/2020 18:04:15.775",0.82,-1.305,1.152,2020-02-08 18:04:15.775
"2/8/2020 18:04:15.788",0.813,-1.113,0.961,2020-02-08 18:04:15.788
"2/8/2020 18:04:15.800",0.891,-0.902,0.754,2020-02-08 18:04:15.799
"2/8/2020 18:04:15.813",0.988,-0.73,0.594,2020-02-08 18:04:15.812
"2/8/2020 18:04:15.825",1.012,-0.598,0.469,2020-02-08 18:04:15.825
"2/8/2020 18:04:15.838",0.961,-0.496,0.367,2020-02-08 18:04:15.838
"2/8/2020 18:04:15.850",0.879,-0.406,0.305,2020-02-08 18:04:15.849
"2/8/2020 18:04:15.863",0.82,-0.285,0.211,2020-02-08 18:04:15.862
"2/8/2020 18:04:15.875",0.727,-0.152,0.121,2020-02-08 18:04:15.875
"2/8/2020 18:04:15.888",0.656,-0.023,0.043,2020-02-08 18:04:15.888
"2/8/2020 18:04:15.900",0.629,0.086,-0.027,2020-02-08 18:04:15.900
"2/8/2020 18:04:15.913",0.633,0.223,-0.102,2020-02-08 18:04:15.913
"2/8/2020 18:04:15.925",0.605,0.32,-0.141,2020-02-08 18:04:15.924
"2/8/2020 18:04:15.938",0.57,0.273,-0.086,2020-02-08 18:04:15.937
"2/8/2020 18:04:15.950",0.484,0.156,-0.039,2020-02-08 18:04:15.950
"2/8/2020 18:04:15.963",0.332,0.113,-0.055,2020-02-08 18:04:15.963
"2/8/2020 18:04:15.975",0.242,0.07,-0.086,2020-02-08 18:04:15.974
"2/8/2020 18:04:15.988",0.129,0.055,-0.164,2020-02-08 18:04:15.987
"2/8/2020 18:04:16.000",0.059,0.035,-0.285,2020-02-08 18:04:16.000
"2/8/2020 18:04:16.013",-0.066,0.027,-0.441,2020-02-08 18:04:16.013
"2/8/2020 18:04:16.025",-0.215,0.047,-0.563,2020-02-08 18:04:16.025
"2/8/2020 18:04:16.038",-0.34,0.066,-0.629,2020-02-08 18:04:16.038
"2/8/2020 18:04:16.050",-0.426,0.07,-0.707,2020-02-08 18:04:16.049
"2/8/2020 18:04:16.063",-0.477,0.148,-0.801,2020-02-08 18:04:16.062
"2/8/2020 18:04:16.075",-0.457,0.238,-0.91,2020-02-08 18:04:16.075
"2/8/2020 18:04:16.088",-0.434,0.371,-1.043,2020-02-08 18:04:16.088
"2/8/2020 18:04:16.100",-0.371,0.383,-1.117,2020-02-08 18:04:16.099
"2/8/2020 18:04:16.113",-0.359,0.305,-1.148,2020-02-08 18:04:16.112
"2/8/2020 18:04:16.125",-0.379,0.18,-1.152,2020-02-08 18:04:16.125
"2/8/2020 18:04:16.138",-0.426,0,-1.133,2020-02-08 18:04:16.138
"2/8/2020 18:04:16.150",-0.488,-0.188,-1.078,2020-02-08 18:04:16.150
"2/8/2020 18:04:16.163",-0.496,-0.32,-0.98,2020-02-08 18:04:16.163
"2/8/2020 18:04:16.175",-0.465,-0.324,-0.867,2020-02-08 18:04:16.174
"2/8/2020 18:04:16.188",-0.402,-0.25,-0.766,2020-02-08 18:04:16.187
"2/8/2020 18:04:16.200",-0.293,-0.184,-0.719,2020-02-08 18:04:16.200
"2/8/2020 18:04:16.213",-0.168,-0.215,-0.781,2020-02-08 18:04:16.213
"2/8/2020 18:04:16.225",-0.145,-0.25,-0.836,2020-02-08 18:04:16.224
"2/8/2020 18:04:16.238",-0.105,-0.266,-0.898,2020-02-08 18:04:16.237
"2/8/2020 18:04:16.250",-0.016,-0.215,-1.051,2020-02-08 18:04:16.250
"2/8/2020 18:04:16.263",0.141,-0.207,-1.355,2020-02-08 18:04:16.263
"2/8/2020 18:04:16.275",0.281,-0.266,-1.793,2020-02-08 18:04:16.275
"2/8/2020 18:04:16.288",0.289,-0.258,-2.359,2020-02-08 18:04:16.288
"2/8/2020 18:04:16.300",0.133,-0.266,-2.887,2020-02-08 18:04:16.299
"2/8/2020 18:04:16.313",-0.09,-0.324,-3.109,2020-02-08 18:04:16.312
"2/8/2020 18:04:16.325",-0.191,-0.18,-2.816,2020-02-08 18:04:16.325
"2/8/2020 18:04:16.338",-0.117,0.07,-2.375,2020-02-08 18:04:16.338
"2/8/2020 18:04:16.350",0.398,0.395,-1.582,2020-02-08 18:04:16.349
"2/8/2020 18:04:16.363",1.023,0.652,-0.977,2020-02-08 18:04:16.362
"2/8/2020 18:04:16.375",0.789,0.59,-0.93,2020-02-08 18:04:16.375
"2/8/2020 18:04:16.388",0.34,0.281,-0.98,2020-02-08 18:04:16.388
"2/8/2020 18:04:16.400",0.309,0.074,-1.145,2020-02-08 18:04:16.400
"2/8/2020 18:04:16.413",0.418,0.082,-1.449,2020-02-08 18:04:16.413
"2/8/2020 18:04:16.425",0.539,0.18,-1.738,2020-02-08 18:04:16.424
"2/8/2020 18:04:16.438",0.598,0.313,-1.898,2020-02-08 18:04:16.437
"2/8/2020 18:04:16.450",0.539,0.391,-1.77,2020-02-08 18:04:16.450
"2/8/2020 18:04:16.463",0.438,0.348,-1.492,2020-02-08 18:04:16.463
"2/8/2020 18:04:16.475",0.363,0.293,-1.289,2020-02-08 18:04:16.474
"2/8/2020 18:04:16.488",0.371,0.273,-1.246,2020-02-08 18:04:16.487
"2/8/2020 18:04:16.500",0.426,0.293,-1.32,2020-02-08 18:04:16.500
"2/8/2020 18:04:16.513",0.48,0.367,-1.363,2020-02-08 18:04:16.513
"2/8/2020 18:04:16.525",0.508,0.5,-1.273,2020-02-08 18:04:16.525
"2/8/2020 18:04:16.538",0.461,0.551,-1.113,2020-02-08 18:04:16.538
"2/8/2020 18:04:16.550",0.395,0.531,-0.996,2020-02-08 18:04:16.549
"2/8/2020 18:04:16.563",0.398,0.605,-0.996,2020-02-08 18:04:16.562
"2/8/2020 18:04:16.575",0.441,0.68,-1.117,2020-02-08 18:04:16.575
"2/8/2020 18:04:16.588",0.477,0.738,-1.18,2020-02-08 18:04:16.588
"2/8/2020 18:04:16.600",0.504,0.754,-1.141,2020-02-08 18:04:16.599
"2/8/2020 18:04:16.613",0.523,0.789,-1.074,2020-02-08 18:04:16.612
"2/8/2020 18:04:16.625",0.535,0.867,-1.035,2020-02-08 18:04:16.625
"2/8/2020 18:04:16.638",0.566,0.93,-1.035,2020-02-08 18:04:16.638
"2/8/2020 18:04:16.650",0.578,0.938,-0.996,2020-02-08 18:04:16.650
"2/8/2020 18:04:16.663",0.57,0.91,-0.906,2020-02-08 18:04:16.663
"2/8/2020 18:04:16.675",0.543,0.875,-0.82,2020-02-08 18:04:16.674
"2/8/2020 18:04:16.688",0.512,0.828,-0.703,2020-02-08 18:04:16.687
"2/8/2020 18:04:16.700",0.465,0.797,-0.613,2020-02-08 18:04:16.700
"2/8/2020 18:04:16.713",0.422,0.809,-0.512,2020-02-08 18:04:16.713
"2/8/2020 18:04:16.725",0.406,0.801,-0.426,2020-02-08 18:04:16.724
"2/8/2020 18:04:16.738",0.395,0.805,-0.359,2020-02-08 18:04:16.737
"2/8/2020 18:04:16.750",0.363,0.738,-0.242,2020-02-08 18:04:16.750
"2/8/2020 18:04:16.763",0.328,0.707,-0.133,2020-02-08 18:04:16.763
"2/8/2020 18:04:16.775",0.254,0.691,-0.066,2020-02-08 18:04:16.775
"2/8/2020 18:04:16.788",0.176,0.605,0.012,2020-02-08 18:04:16.788
"2/8/2020 18:04:16.800",0.09,0.488,0.094,2020-02-08 18:04:16.799
"2/8/2020 18:04:16.813",0.004,0.352,0.25,2020-02-08 18:04:16.812
"2/8/2020 18:04:16.825",-0.012,0.207,0.406,2020-02-08 18:04:16.825
"2/8/2020 18:04:16.838",0.059,0.102,0.484,2020-02-08 18:04:16.838
"2/8/2020 18:04:16.850",0.102,0.098,0.383,2020-02-08 18:04:16.849
"2/8/2020 18:04:16.863",0.07,0.098,0.34,2020-02-08 18:04:16.862
"2/8/2020 18:04:16.875",-0.023,-0.02,0.445,2020-02-08 18:04:16.875
"2/8/2020 18:04:16.888",-0.129,-0.145,0.586,2020-02-08 18:04:16.888
"2/8/2020 18:04:16.900",-0.219,-0.141,0.746,2020-02-08 18:04:16.900
"2/8/2020 18:04:16.913",-0.309,-0.07,0.867,2020-02-08 18:04:16.913
"2/8/2020 18:04:16.925",-0.332,-0.063,0.961,2020-02-08 18:04:16.924
"2/8/2020 18:04:16.938",-0.332,-0.16,1.063,2020-02-08 18:04:16.937
"2/8/2020 18:04:16.950",-0.352,-0.191,1.113,2020-02-08 18:04:16.950
"2/8/2020 18:04:16.963",-0.355,-0.168,1.145,2020-02-08 18:04:16.963
"2/8/2020 18:04:16.975",-0.363,-0.133,1.145,2020-02-08 18:04:16.974
"2/8/2020 18:04:16.988",-0.387,-0.113,1.191,2020-02-08 18:04:16.987
"2/8/2020 18:04:17.000",-0.387,-0.094,1.254,2020-02-08 18:04:17.000
"2/8/2020 18:04:17.013",-0.363,-0.102,1.332,2020-02-08 18:04:17.013
"2/8/2020 18:04:17.025",-0.301,-0.094,1.477,2020-02-08 18:04:17.025
"2/8/2020 18:04:17.038",-0.227,-0.004,1.488,2020-02-08 18:04:17.038
"2/8/2020 18:04:17.050",-0.137,0.09,1.441,2020-02-08 18:04:17.049
"2/8/2020 18:04:17.063",-0.113,0.07,1.352,2020-02-08 18:04:17.062
"2/8/2020 18:04:17.075",-0.102,0.016,1.191,2020-02-08 18:04:17.075
"2/8/2020 18:04:17.088",-0.102,-0.082,0.984,2020-02-08 18:04:17.088
"2/8/2020 18:04:17.100",-0.105,-0.219,0.824,2020-02-08 18:04:17.099
"2/8/2020 18:04:17.113",-0.055,-0.375,0.813,2020-02-08 18:04:17.112
"2/8/2020 18:04:17.125",0.055,-0.383,0.844,2020-02-08 18:04:17.125
"2/8/2020 18:04:17.138",0.172,-0.32,0.84,2020-02-08 18:04:17.138
"2/8/2020 18:04:17.150",0.219,-0.32,0.801,2020-02-08 18:04:17.150
"2/8/2020 18:04:17.163",0.195,-0.363,0.742,2020-02-08 18:04:17.163
"2/8/2020 18:04:17.175",0.195,-0.379,0.703,2020-02-08 18:04:17.174
"2/8/2020 18:04:17.188",0.219,-0.383,0.66,2020-02-08 18:04:17.187
"2/8/2020 18:04:17.200",0.277,-0.379,0.684,2020-02-08 18:04:17.200
"2/8/2020 18:04:17.213",0.359,-0.379,0.801,2020-02-08 18:04:17.213
"2/8/2020 18:04:17.225",0.465,-0.414,0.965,2020-02-08 18:04:17.224
"2/8/2020 18:04:17.238",0.566,-0.379,1.145,2020-02-08 18:04:17.237
"2/8/2020 18:04:17.250",0.543,-0.371,1.227,2020-02-08 18:04:17.250
"2/8/2020 18:04:17.263",0.406,-0.418,1.199,2020-02-08 18:04:17.263
"2/8/2020 18:04:17.275",0.234,-0.492,1.094,2020-02-08 18:04:17.275
"2/8/2020 18:04:17.288",0.113,-0.465,0.945,2020-02-08 18:04:17.288
"2/8/2020 18:04:17.300",0.176,-0.426,0.844,2020-02-08 18:04:17.299
"2/8/2020 18:04:17.313",0.156,-0.477,0.809,2020-02-08 18:04:17.312
"2/8/2020 18:04:17.325",0.07,-0.516,0.754,2020-02-08 18:04:17.325
"2/8/2020 18:04:17.338",0.125,-0.492,0.719,2020-02-08 18:04:17.338
"2/8/2020 18:04:17.350",0.07,-0.465,0.703,2020-02-08 18:04:17.349
"2/8/2020 18:04:17.363",-0.051,-0.43,0.715,2020-02-08 18:04:17.362
"2/8/2020 18:04:17.375",-0.066,-0.402,0.746,2020-02-08 18:04:17.375
"2/8/2020 18:04:17.388",-0.039,-0.383,0.742,2020-02-08 18:04:17.388
"2/8/2020 18:04:17.400",-0.09,-0.375,0.699,2020-02-08 18:04:17.400
"2/8/2020 18:04:17.413",-0.152,-0.41,0.652,2020-02-08 18:04:17.413
"2/8/2020 18:04:17.425",-0.141,-0.418,0.633,2020-02-08 18:04:17.424
"2/8/2020 18:04:17.438",-0.113,-0.422,0.633,2020-02-08 18:04:17.437
"2/8/2020 18:04:17.450",-0.078,-0.395,0.652,2020-02-08 18:04:17.450
"2/8/2020 18:04:17.463",-0.043,-0.371,0.684,2020-02-08 18:04:17.463
"2/8/2020 18:04:17.475",-0.043,-0.316,0.734,2020-02-08 18:04:17.474
"2/8/2020 18:04:17.488",-0.055,-0.223,0.777,2020-02-08 18:04:17.487
"2/8/2020 18:04:17.500",-0.07,-0.207,0.801,2020-02-08 18:04:17.500
"2/8/2020 18:04:17.513",-0.109,-0.301,0.813,2020-02-08 18:04:17.513
"2/8/2020 18:04:17.525",-0.012,-0.285,0.75,2020-02-08 18:04:17.525
"2/8/2020 18:04:17.538",0.102,-0.266,0.668,2020-02-08 18:04:17.538
"2/8/2020 18:04:17.550",0.102,-0.227,0.648,2020-02-08 18:04:17.549
"2/8/2020 18:04:17.563",0.176,-0.199,0.672,2020-02-08 18:04:17.562
"2/8/2020 18:04:17.575",0.223,-0.207,0.703,2020-02-08 18:04:17.575
"2/8/2020 18:04:17.588",0.25,-0.215,0.754,2020-02-08 18:04:17.588
"2/8/2020 18:04:17.600",0.273,-0.211,0.762,2020-02-08 18:04:17.599
"2/8/2020 18:04:17.613",0.309,-0.172,0.766,2020-02-08 18:04:17.612
"2/8/2020 18:04:17.625",0.355,-0.152,0.789,2020-02-08 18:04:17.625
"2/8/2020 18:04:17.638",0.395,-0.195,0.813,2020-02-08 18:04:17.638
"2/8/2020 18:04:17.650",0.387,-0.238,0.828,2020-02-08 18:04:17.650
"2/8/2020 18:04:17.663",0.359,-0.246,0.832,2020-02-08 18:04:17.663
"2/8/2020 18:04:17.675",0.328,-0.203,0.855,2020-02-08 18:04:17.674
"2/8/2020 18:04:17.688",0.313,-0.184,0.883,2020-02-08 18:04:17.687
"2/8/2020 18:04:17.700",0.328,-0.16,0.902,2020-02-08 18:04:17.700
"2/8/2020 18:04:17.713",0.355,-0.125,0.918,2020-02-08 18:04:17.713
"2/8/2020 18:04:17.725",0.383,-0.109,0.922,2020-02-08 18:04:17.724
"2/8/2020 18:04:17.738",0.379,-0.113,0.902,2020-02-08 18:04:17.737
"2/8/2020 18:04:17.750",0.383,-0.09,0.875,2020-02-08 18:04:17.750
"2/8/2020 18:04:17.763",0.371,-0.051,0.836,2020-02-08 18:04:17.763
"2/8/2020 18:04:17.775",0.355,0,0.805,2020-02-08 18:04:17.775
"2/8/2020 18:04:17.788",0.32,0.035,0.789,2020-02-08 18:04:17.788
"2/8/2020 18:04:17.800",0.25,0.066,0.801,2020-02-08 18:04:17.799
"2/8/2020 18:04:17.813",0.18,0.082,0.836,2020-02-08 18:04:17.812
"2/8/2020 18:04:17.825",0.195,0.094,0.855,2020-02-08 18:04:17.825
"2/8/2020 18:04:17.838",0.227,0.063,0.836,2020-02-08 18:04:17.838
"2/8/2020 18:04:17.850",0.273,0.117,0.867,2020-02-08 18:04:17.849
"2/8/2020 18:04:17.863",0.293,0.211,0.953,2020-02-08 18:04:17.862
"2/8/2020 18:04:17.875",0.301,0.301,1.086,2020-02-08 18:04:17.875
"2/8/2020 18:04:17.888",0.344,0.359,1.363,2020-02-08 18:04:17.888
"2/8/2020 18:04:17.900",0.422,0.262,1.734,2020-02-08 18:04:17.900
"2/8/2020 18:04:17.913",0.469,0.063,2.035,2020-02-08 18:04:17.913
"2/8/2020 18:04:17.925",0.508,-0.113,2.238,2020-02-08 18:04:17.924
"2/8/2020 18:04:17.938",0.605,-0.336,2.297,2020-02-08 18:04:17.937
"2/8/2020 18:04:17.950",0.816,-0.594,2.191,2020-02-08 18:04:17.950
"2/8/2020 18:04:17.963",1.031,-0.711,2.004,2020-02-08 18:04:17.963
"2/8/2020 18:04:17.975",1.172,-0.535,1.891,2020-02-08 18:04:17.974
"2/8/2020 18:04:17.988",1.438,-0.363,1.828,2020-02-08 18:04:17.987
"2/8/2020 18:04:18.000",1.676,-0.102,1.75,2020-02-08 18:04:18.000
"2/8/2020 18:04:18.013",1.848,0.305,1.629,2020-02-08 18:04:18.013
"2/8/2020 18:04:18.025",1.965,0.746,1.484,2020-02-08 18:04:18.025
"2/8/2020 18:04:18.038",1.969,1.063,1.387,2020-02-08 18:04:18.038
"2/8/2020 18:04:18.050",1.672,1.148,1.316,2020-02-08 18:04:18.049
"2/8/2020 18:04:18.063",1.281,1.227,1.305,2020-02-08 18:04:18.062
"2/8/2020 18:04:18.075",1.07,1.313,1.281,2020-02-08 18:04:18.075
"2/8/2020 18:04:18.088",1.008,1.301,1.148,2020-02-08 18:04:18.088
