"Timestamp","Accelerometer.X","Accelerometer.Y","Accelerometer.Z","DATE_TIME"
"2/8/2020 18:03:56.038",-0.23,0.063,0.941,2020-02-08 18:03:56.038
"2/8/2020 18:03:56.050",-0.223,0.121,0.918,2020-02-08 18:03:56.049
"2/8/2020 18:03:56.063",-0.215,0.148,0.914,2020-02-08 18:03:56.062
"2/8/2020 18:03:56.075",-0.203,0.125,0.934,2020-02-08 18:03:56.075
"2/8/2020 18:03:56.088",-0.203,0.074,0.965,2020-02-08 18:03:56.088
"2/8/2020 18:03:56.100",-0.199,0.035,0.988,2020-02-08 18:03:56.099
"2/8/2020 18:03:56.113",-0.199,0.016,1,2020-02-08 18:03:56.112
"2/8/2020 18:03:56.125",-0.191,0.023,0.992,2020-02-08 18:03:56.125
"2/8/2020 18:03:56.138",-0.184,0.039,0.98,2020-02-08 18:03:56.138
"2/8/2020 18:03:56.150",-0.176,0.059,0.957,2020-02-08 18:03:56.150
"2/8/2020 18:03:56.163",-0.164,0.047,0.93,2020-02-08 18:03:56.163
"2/8/2020 18:03:56.175",-0.152,0.023,0.922,2020-02-08 18:03:56.174
"2/8/2020 18:03:56.188",-0.137,0.008,0.926,2020-02-08 18:03:56.187
"2/8/2020 18:03:56.200",-0.133,-0.02,0.914,2020-02-08 18:03:56.200
"2/8/2020 18:03:56.213",-0.133,-0.031,0.891,2020-02-08 18:03:56.213
"2/8/2020 18:03:56.225",-0.121,0,0.871,2020-02-08 18:03:56.224
"2/8/2020 18:03:56.238",-0.117,0.027,0.883,2020-02-08 18:03:56.237
"2/8/2020 18:03:56.250",-0.121,0.016,0.902,2020-02-08 18:03:56.250
"2/8/2020 18:03:56.263",-0.137,-0.004,0.934,2020-02-08 18:03:56.263
"2/8/2020 18:03:56.275",-0.145,-0.004,0.961,2020-02-08 18:03:56.275
"2/8/2020 18:03:56.288",-0.145,0,0.973,2020-02-08 18:03:56.288
"2/8/2020 18:03:56.300",-0.148,-0.004,0.957,2020-02-08 18:03:56.299
"2/8/2020 18:03:56.313",-0.16,-0.008,0.941,2020-02-08 18:03:56.312
"2/8/2020 18:03:56.325",-0.164,0.023,0.926,2020-02-08 18:03:56.325
"2/8/2020 18:03:56.338",-0.156,0.07,0.93,2020-02-08 18:03:56.338
"2/8/2020 18:03:56.350",-0.152,0.102,0.953,2020-02-08 18:03:56.349
"2/8/2020 18:03:56.363",-0.16,0.102,0.969,2020-02-08 18:03:56.362
"2/8/2020 18:03:56.375",-0.172,0.094,0.977,2020-02-08 18:03:56.375
"2/8/2020 18:03:56.388",-0.172,0.078,0.973,2020-02-08 18:03:56.388
"2/8/2020 18:03:56.400",-0.164,0.074,0.953,2020-02-08 18:03:56.400
"2/8/2020 18:03:56.413",-0.145,0.09,0.934,2020-02-08 18:03:56.413
"2/8/2020 18:03:56.425",-0.145,0.117,0.926,2020-02-08 18:03:56.424
"2/8/2020 18:03:56.438",-0.152,0.129,0.934,2020-02-08 18:03:56.437
"2/8/2020 18:03:56.450",-0.16,0.129,0.945,2020-02-08 18:03:56.450
"2/8/2020 18:03:56.463",-0.16,0.117,0.934,2020-02-08 18:03:56.463
"2/8/2020 18:03:56.475",-0.152,0.125,0.902,2020-02-08 18:03:56.474
"2/8/2020 18:03:56.488",-0.16,0.191,0.859,2020-02-08 18:03:56.487
"2/8/2020 18:03:56.500",-0.176,0.289,0.82,2020-02-08 18:03:56.500
"2/8/2020 18:03:56.513",-0.176,0.32,0.891,2020-02-08 18:03:56.513
"2/8/2020 18:03:56.525",-0.152,0.211,0.914,2020-02-08 18:03:56.525
"2/8/2020 18:03:56.538",-0.098,0.09,0.855,2020-02-08 18:03:56.538
"2/8/2020 18:03:56.550",-0.008,0.078,0.707,2020-02-08 18:03:56.549
"2/8/2020 18:03:56.563",0.063,0.258,0.555,2020-02-08 18:03:56.562
"2/8/2020 18:03:56.575",0.094,0.52,0.438,2020-02-08 18:03:56.575
"2/8/2020 18:03:56.588",0.063,0.711,0.398,2020-02-08 18:03:56.588
"2/8/2020 18:03:56.600",0.027,0.723,0.406,2020-02-08 18:03:56.599
"2/8/2020 18:03:56.613",0.051,0.754,0.43,2020-02-08 18:03:56.612
"2/8/2020 18:03:56.625",0.027,0.891,0.406,2020-02-08 18:03:56.625
"2/8/2020 18:03:56.638",-0.055,1.094,0.395,2020-02-08 18:03:56.638
"2/8/2020 18:03:56.650",-0.066,1.227,0.387,2020-02-08 18:03:56.650
"2/8/2020 18:03:56.663",-0.039,1.211,0.383,2020-02-08 18:03:56.663
"2/8/2020 18:03:56.675",-0.063,1.215,0.371,2020-02-08 18:03:56.674
"2/8/2020 18:03:56.688",-0.121,1.375,0.336,2020-02-08 18:03:56.687
"2/8/2020 18:03:56.700",-0.223,1.66,0.309,2020-02-08 18:03:56.700
"2/8/2020 18:03:56.713",-0.359,1.918,0.23,2020-02-08 18:03:56.713
"2/8/2020 18:03:56.725",-0.477,2.121,0.098,2020-02-08 18:03:56.724
"2/8/2020 18:03:56.738",-0.531,2.301,-0.035,2020-02-08 18:03:56.737
"2/8/2020 18:03:56.750",-0.547,2.457,-0.223,2020-02-08 18:03:56.750
"2/8/2020 18:03:56.763",-0.555,2.605,-0.367,2020-02-08 18:03:56.763
"2/8/2020 18:03:56.775",-0.621,2.758,-0.527,2020-02-08 18:03:56.775
"2/8/2020 18:03:56.788",-0.781,2.84,-0.672,2020-02-08 18:03:56.788
"2/8/2020 18:03:56.800",-0.914,2.719,-0.746,2020-02-08 18:03:56.799
"2/8/2020 18:03:56.813",-0.996,2.484,-0.75,2020-02-08 18:03:56.812
"2/8/2020 18:03:56.825",-0.98,2.332,-0.73,2020-02-08 18:03:56.825
"2/8/2020 18:03:56.838",-0.93,2.383,-0.699,2020-02-08 18:03:56.838
"2/8/2020 18:03:56.850",-0.914,2.504,-0.707,2020-02-08 18:03:56.849
"2/8/2020 18:03:56.863",-0.992,2.398,-0.805,2020-02-08 18:03:56.862
"2/8/2020 18:03:56.875",-1.09,1.879,-0.828,2020-02-08 18:03:56.875
"2/8/2020 18:03:56.888",-1.02,1.461,-0.723,2020-02-08 18:03:56.888
"2/8/2020 18:03:56.900",-0.906,1.195,-0.613,2020-02-08 18:03:56.900
"2/8/2020 18:03:56.913",-0.82,0.953,-0.551,2020-02-08 18:03:56.913
"2/8/2020 18:03:56.925",-0.727,0.727,-0.512,2020-02-08 18:03:56.924
"2/8/2020 18:03:56.938",-0.613,0.609,-0.512,2020-02-08 18:03:56.937
"2/8/2020 18:03:56.950",-0.5,0.508,-0.574,2020-02-08 18:03:56.950
"2/8/2020 18:03:56.963",-0.34,0.336,-0.586,2020-02-08 18:03:56.963
"2/8/2020 18:03:56.975",-0.207,0.156,-0.574,2020-02-08 18:03:56.974
"2/8/2020 18:03:56.988",-0.133,0.055,-0.574,2020-02-08 18:03:56.987
"2/8/2020 18:03:57.000",-0.117,-0.027,-0.582,2020-02-08 18:03:57.000
"2/8/2020 18:03:57.013",-0.055,-0.129,-0.621,2020-02-08 18:03:57.013
"2/8/2020 18:03:57.025",0.043,-0.184,-0.711,2020-02-08 18:03:57.025
"2/8/2020 18:03:57.038",0.125,-0.285,-0.738,2020-02-08 18:03:57.038
"2/8/2020 18:03:57.050",0.219,-0.484,-0.68,2020-02-08 18:03:57.049
"2/8/2020 18:03:57.063",0.285,-0.746,-0.543,2020-02-08 18:03:57.062
"2/8/2020 18:03:57.075",0.348,-0.902,-0.516,2020-02-08 18:03:57.075
"2/8/2020 18:03:57.088",0.379,-0.957,-0.523,2020-02-08 18:03:57.088
"2/8/2020 18:03:57.100",0.371,-1.047,-0.613,2020-02-08 18:03:57.099
"2/8/2020 18:03:57.113",0.305,-1.133,-0.871,2020-02-08 18:03:57.112
"2/8/2020 18:03:57.125",0.34,-1.152,-1.195,2020-02-08 18:03:57.125
"2/8/2020 18:03:57.138",0.426,-1.066,-1.5,2020-02-08 18:03:57.138
"2/8/2020 18:03:57.150",0.41,-0.77,-1.699,2020-02-08 18:03:57.150
"2/8/2020 18:03:57.163",0.316,-0.172,-1.664,2020-02-08 18:03:57.163
"2/8/2020 18:03:57.175",-0.078,0.809,-1.652,2020-02-08 18:03:57.174
"2/8/2020 18:03:57.188",-0.254,1.262,-1.035,2020-02-08 18:03:57.187
"2/8/2020 18:03:57.200",0.324,0.152,-0.297,2020-02-08 18:03:57.200
"2/8/2020 18:03:57.213",0.383,-0.832,-0.051,2020-02-08 18:03:57.213
"2/8/2020 18:03:57.225",0.516,-0.281,-0.191,2020-02-08 18:03:57.224
"2/8/2020 18:03:57.238",0.617,0.484,-0.223,2020-02-08 18:03:57.237
"2/8/2020 18:03:57.250",0.637,0.758,-0.105,2020-02-08 18:03:57.250
"2/8/2020 18:03:57.263",0.711,0.828,0.082,2020-02-08 18:03:57.263
"2/8/2020 18:03:57.275",0.773,0.664,0.277,2020-02-08 18:03:57.275
"2/8/2020 18:03:57.288",0.809,0.75,0.414,2020-02-08 18:03:57.288
"2/8/2020 18:03:57.300",0.82,0.934,0.547,2020-02-08 18:03:57.299
"2/8/2020 18:03:57.313",0.84,1.023,0.707,2020-02-08 18:03:57.312
"2/8/2020 18:03:57.325",0.836,1.016,0.848,2020-02-08 18:03:57.325
"2/8/2020 18:03:57.338",0.863,1.047,0.926,2020-02-08 18:03:57.338
"2/8/2020 18:03:57.350",0.895,1.129,0.957,2020-02-08 18:03:57.349
"2/8/2020 18:03:57.363",0.898,1.316,0.914,2020-02-08 18:03:57.362
"2/8/2020 18:03:57.375",0.906,1.449,0.898,2020-02-08 18:03:57.375
"2/8/2020 18:03:57.388",0.918,1.363,0.957,2020-02-08 18:03:57.388
"2/8/2020 18:03:57.400",0.926,1.297,1.02,2020-02-08 18:03:57.400
"2/8/2020 18:03:57.413",0.973,1.223,1.055,2020-02-08 18:03:57.413
"2/8/2020 18:03:57.425",1.008,1.195,1.027,2020-02-08 18:03:57.424
"2/8/2020 18:03:57.438",1.02,1.195,0.973,2020-02-08 18:03:57.437
"2/8/2020 18:03:57.450",1.012,1.117,0.957,2020-02-08 18:03:57.450
"2/8/2020 18:03:57.463",0.973,1.035,0.98,2020-02-08 18:03:57.463
"2/8/2020 18:03:57.475",0.965,0.953,1,2020-02-08 18:03:57.474
"2/8/2020 18:03:57.488",0.98,0.867,1.039,2020-02-08 18:03:57.487
"2/8/2020 18:03:57.500",0.996,0.801,1.113,2020-02-08 18:03:57.500
"2/8/2020 18:03:57.513",1.023,0.832,1.18,2020-02-08 18:03:57.513
"2/8/2020 18:03:57.525",1.004,0.914,1.227,2020-02-08 18:03:57.525
"2/8/2020 18:03:57.538",0.965,0.961,1.25,2020-02-08 18:03:57.538
"2/8/2020 18:03:57.550",0.934,1.016,1.309,2020-02-08 18:03:57.549
"2/8/2020 18:03:57.563",0.875,1.023,1.387,2020-02-08 18:03:57.562
"2/8/2020 18:03:57.575",0.781,1.051,1.469,2020-02-08 18:03:57.575
"2/8/2020 18:03:57.588",0.668,1.043,1.527,2020-02-08 18:03:57.588
"2/8/2020 18:03:57.600",0.605,0.945,1.512,2020-02-08 18:03:57.599
"2/8/2020 18:03:57.613",0.531,0.656,1.367,2020-02-08 18:03:57.612
"2/8/2020 18:03:57.625",0.449,0.078,1.109,2020-02-08 18:03:57.625
"2/8/2020 18:03:57.638",0.527,-0.848,0.738,2020-02-08 18:03:57.638
"2/8/2020 18:03:57.650",0.516,-2.035,-0.199,2020-02-08 18:03:57.650
"2/8/2020 18:03:57.663",0.215,-2.492,-1.961,2020-02-08 18:03:57.663
"2/8/2020 18:03:57.675",0.156,-1.297,-3.301,2020-02-08 18:03:57.674
"2/8/2020 18:03:57.688",0.805,1.617,-2.348,2020-02-08 18:03:57.687
"2/8/2020 18:03:57.700",1.008,2.734,-1.246,2020-02-08 18:03:57.700
"2/8/2020 18:03:57.713",0.383,2.68,-0.801,2020-02-08 18:03:57.713
"2/8/2020 18:03:57.725",0.145,1.352,-0.777,2020-02-08 18:03:57.724
"2/8/2020 18:03:57.738",0.172,-0.762,-0.676,2020-02-08 18:03:57.737
"2/8/2020 18:03:57.750",-0.23,-2.871,0.117,2020-02-08 18:03:57.750
"2/8/2020 18:03:57.763",-0.672,-2.559,0.262,2020-02-08 18:03:57.763
"2/8/2020 18:03:57.775",-0.344,-1.523,0.281,2020-02-08 18:03:57.775
"2/8/2020 18:03:57.788",-0.031,-0.797,0.285,2020-02-08 18:03:57.788
"2/8/2020 18:03:57.800",0.102,-0.41,0.215,2020-02-08 18:03:57.799
"2/8/2020 18:03:57.813",0.188,0.016,0.031,2020-02-08 18:03:57.812
"2/8/2020 18:03:57.825",0.344,0.367,-0.121,2020-02-08 18:03:57.825
"2/8/2020 18:03:57.838",0.527,0.516,-0.234,2020-02-08 18:03:57.838
"2/8/2020 18:03:57.850",0.664,0.539,-0.383,2020-02-08 18:03:57.849
"2/8/2020 18:03:57.863",0.777,0.473,-0.5,2020-02-08 18:03:57.862
"2/8/2020 18:03:57.875",0.871,0.352,-0.094,2020-02-08 18:03:57.875
"2/8/2020 18:03:57.888",0.859,0.297,0.277,2020-02-08 18:03:57.888
"2/8/2020 18:03:57.900",0.926,0.551,0.438,2020-02-08 18:03:57.900
"2/8/2020 18:03:57.913",1.223,0.977,0.57,2020-02-08 18:03:57.913
"2/8/2020 18:03:57.925",1.613,1.449,0.633,2020-02-08 18:03:57.924
"2/8/2020 18:03:57.938",1.676,1.809,0.586,2020-02-08 18:03:57.937
"2/8/2020 18:03:57.950",1.555,1.867,0.617,2020-02-08 18:03:57.950
"2/8/2020 18:03:57.963",1.395,1.746,0.785,2020-02-08 18:03:57.963
"2/8/2020 18:03:57.975",1.121,1.621,0.992,2020-02-08 18:03:57.974
"2/8/2020 18:03:57.988",0.762,1.531,1.125,2020-02-08 18:03:57.987
"2/8/2020 18:03:58.000",0.535,1.352,0.945,2020-02-08 18:03:58.000
"2/8/2020 18:03:58.013",0.633,1.016,0.668,2020-02-08 18:03:58.013
"2/8/2020 18:03:58.025",0.855,0.934,0.699,2020-02-08 18:03:58.025
"2/8/2020 18:03:58.038",0.77,0.898,0.891,2020-02-08 18:03:58.038
"2/8/2020 18:03:58.050",0.484,0.996,0.68,2020-02-08 18:03:58.049
"2/8/2020 18:03:58.063",0.488,1.211,0.281,2020-02-08 18:03:58.062
"2/8/2020 18:03:58.075",0.828,1.27,0.016,2020-02-08 18:03:58.075
"2/8/2020 18:03:58.088",0.984,1.414,-0.098,2020-02-08 18:03:58.088
"2/8/2020 18:03:58.100",0.809,1.457,-0.055,2020-02-08 18:03:58.099
"2/8/2020 18:03:58.113",0.719,1.094,0.063,2020-02-08 18:03:58.112
"2/8/2020 18:03:58.125",0.734,0.629,0.152,2020-02-08 18:03:58.125
"2/8/2020 18:03:58.138",0.699,0.34,0.191,2020-02-08 18:03:58.138
"2/8/2020 18:03:58.150",0.605,0.277,0.199,2020-02-08 18:03:58.150
"2/8/2020 18:03:58.163",0.523,0.27,0.07,2020-02-08 18:03:58.163
"2/8/2020 18:03:58.175",0.426,0.281,-0.125,2020-02-08 18:03:58.174
"2/8/2020 18:03:58.188",0.234,0.363,-0.27,2020-02-08 18:03:58.187
"2/8/2020 18:03:58.200",0.129,0.496,-0.203,2020-02-08 18:03:58.200
"2/8/2020 18:03:58.213",0.113,0.645,-0.105,2020-02-08 18:03:58.213
"2/8/2020 18:03:58.225",0.031,0.723,-0.059,2020-02-08 18:03:58.224
"2/8/2020 18:03:58.238",-0.137,0.688,-0.074,2020-02-08 18:03:58.237
"2/8/2020 18:03:58.250",-0.328,0.563,-0.113,2020-02-08 18:03:58.250
"2/8/2020 18:03:58.263",-0.473,0.406,-0.199,2020-02-08 18:03:58.263
"2/8/2020 18:03:58.275",-0.547,0.402,-0.27,2020-02-08 18:03:58.275
"2/8/2020 18:03:58.288",-0.547,0.48,-0.176,2020-02-08 18:03:58.288
"2/8/2020 18:03:58.300",-0.496,0.457,0.07,2020-02-08 18:03:58.299
"2/8/2020 18:03:58.313",-0.422,0.293,0.25,2020-02-08 18:03:58.312
"2/8/2020 18:03:58.325",-0.355,0.148,0.273,2020-02-08 18:03:58.325
"2/8/2020 18:03:58.338",-0.238,0.047,0.16,2020-02-08 18:03:58.338
"2/8/2020 18:03:58.350",-0.129,-0.043,-0.055,2020-02-08 18:03:58.349
"2/8/2020 18:03:58.363",-0.02,-0.117,-0.023,2020-02-08 18:03:58.362
"2/8/2020 18:03:58.375",0.102,-0.258,0.188,2020-02-08 18:03:58.375
"2/8/2020 18:03:58.388",0.207,-0.434,0.34,2020-02-08 18:03:58.388
"2/8/2020 18:03:58.400",0.285,-0.531,0.309,2020-02-08 18:03:58.400
"2/8/2020 18:03:58.413",0.387,-0.453,0.121,2020-02-08 18:03:58.413
"2/8/2020 18:03:58.425",0.5,-0.391,-0.027,2020-02-08 18:03:58.424
"2/8/2020 18:03:58.438",0.645,-0.395,0.063,2020-02-08 18:03:58.437
"2/8/2020 18:03:58.450",0.688,-0.313,0.309,2020-02-08 18:03:58.450
"2/8/2020 18:03:58.463",0.664,-0.141,0.449,2020-02-08 18:03:58.463
"2/8/2020 18:03:58.475",0.652,0.027,0.414,2020-02-08 18:03:58.474
"2/8/2020 18:03:58.488",0.645,0.156,0.332,2020-02-08 18:03:58.487
"2/8/2020 18:03:58.500",0.621,0.258,0.234,2020-02-08 18:03:58.500
"2/8/2020 18:03:58.513",0.574,0.266,0.238,2020-02-08 18:03:58.513
"2/8/2020 18:03:58.525",0.508,0.301,0.219,2020-02-08 18:03:58.525
"2/8/2020 18:03:58.538",0.563,0.375,0.168,2020-02-08 18:03:58.538
"2/8/2020 18:03:58.550",0.691,0.539,-0.098,2020-02-08 18:03:58.549
"2/8/2020 18:03:58.563",0.555,0.883,-0.637,2020-02-08 18:03:58.562
"2/8/2020 18:03:58.575",0.273,1.246,-1.113,2020-02-08 18:03:58.575
"2/8/2020 18:03:58.588",0.137,1.34,-1.277,2020-02-08 18:03:58.588
"2/8/2020 18:03:58.600",0.121,1.074,-1.09,2020-02-08 18:03:58.599
"2/8/2020 18:03:58.613",0.082,0.762,-0.902,2020-02-08 18:03:58.612
"2/8/2020 18:03:58.625",-0.047,0.699,-0.887,2020-02-08 18:03:58.625
"2/8/2020 18:03:58.638",-0.211,0.895,-1.09,2020-02-08 18:03:58.638
"2/8/2020 18:03:58.650",-0.254,1.008,-1.512,2020-02-08 18:03:58.650
"2/8/2020 18:03:58.663",-0.145,0.965,-2.102,2020-02-08 18:03:58.663
"2/8/2020 18:03:58.675",0.242,0.91,-2.355,2020-02-08 18:03:58.674
"2/8/2020 18:03:58.688",0.715,1.102,-2.176,2020-02-08 18:03:58.687
"2/8/2020 18:03:58.700",0.762,1.602,-1.867,2020-02-08 18:03:58.700
"2/8/2020 18:03:58.713",0.664,1.867,-1.715,2020-02-08 18:03:58.713
"2/8/2020 18:03:58.725",0.598,1.82,-1.688,2020-02-08 18:03:58.724
"2/8/2020 18:03:58.738",0.441,1.594,-1.801,2020-02-08 18:03:58.737
"2/8/2020 18:03:58.750",0.27,1.523,-1.879,2020-02-08 18:03:58.750
"2/8/2020 18:03:58.763",0.219,1.684,-1.781,2020-02-08 18:03:58.763
"2/8/2020 18:03:58.775",0.211,1.883,-1.582,2020-02-08 18:03:58.775
"2/8/2020 18:03:58.788",0.168,2.035,-1.422,2020-02-08 18:03:58.788
"2/8/2020 18:03:58.800",0.16,2.004,-1.32,2020-02-08 18:03:58.799
"2/8/2020 18:03:58.813",0.105,1.605,-1.27,2020-02-08 18:03:58.812
"2/8/2020 18:03:58.825",-0.035,0.926,-1.168,2020-02-08 18:03:58.825
"2/8/2020 18:03:58.838",-0.137,0.535,-1.004,2020-02-08 18:03:58.838
"2/8/2020 18:03:58.850",-0.281,0.566,-0.816,2020-02-08 18:03:58.849
"2/8/2020 18:03:58.863",-0.469,0.809,-0.68,2020-02-08 18:03:58.862
"2/8/2020 18:03:58.875",-0.602,1.07,-0.629,2020-02-08 18:03:58.875
"2/8/2020 18:03:58.888",-0.734,0.988,-0.578,2020-02-08 18:03:58.888
"2/8/2020 18:03:58.900",-0.887,0.984,-0.504,2020-02-08 18:03:58.900
"2/8/2020 18:03:58.913",-1.035,1.25,-0.453,2020-02-08 18:03:58.913
"2/8/2020 18:03:58.925",-1.242,1.516,-0.422,2020-02-08 18:03:58.924
"2/8/2020 18:03:58.938",-1.281,1.727,-0.383,2020-02-08 18:03:58.937
"2/8/2020 18:03:58.950",-1.273,1.621,-0.352,2020-02-08 18:03:58.950
"2/8/2020 18:03:58.963",-1.352,1.254,-0.289,2020-02-08 18:03:58.963
"2/8/2020 18:03:58.975",-1.484,0.832,-0.258,2020-02-08 18:03:58.974
"2/8/2020 18:03:58.988",-1.551,0.484,-0.188,2020-02-08 18:03:58.987
"2/8/2020 18:03:59.000",-1.566,0.141,-0.074,2020-02-08 18:03:59.000
"2/8/2020 18:03:59.013",-1.52,-0.219,0.098,2020-02-08 18:03:59.013
"2/8/2020 18:03:59.025",-1.559,-0.652,0.32,2020-02-08 18:03:59.025
"2/8/2020 18:03:59.038",-1.613,-1.07,0.523,2020-02-08 18:03:59.038
"2/8/2020 18:03:59.050",-1.641,-1.207,0.434,2020-02-08 18:03:59.049
"2/8/2020 18:03:59.063",-1.516,-0.848,-0.063,2020-02-08 18:03:59.062
"2/8/2020 18:03:59.075",-1.277,-0.313,-0.297,2020-02-08 18:03:59.075
"2/8/2020 18:03:59.088",-1.262,-0.133,-0.191,2020-02-08 18:03:59.088
"2/8/2020 18:03:59.100",-1.5,-0.125,0.168,2020-02-08 18:03:59.099
"2/8/2020 18:03:59.113",-2.277,0.109,0.609,2020-02-08 18:03:59.112
"2/8/2020 18:03:59.125",-2.734,0.617,1.023,2020-02-08 18:03:59.125
"2/8/2020 18:03:59.138",-1.867,0.68,1.363,2020-02-08 18:03:59.138
"2/8/2020 18:03:59.150",-1.512,0.555,1.484,2020-02-08 18:03:59.150
"2/8/2020 18:03:59.163",-1.484,0.238,1.5,2020-02-08 18:03:59.163
"2/8/2020 18:03:59.175",-1.355,0.211,1.398,2020-02-08 18:03:59.174
"2/8/2020 18:03:59.188",-1.246,0.172,1.328,2020-02-08 18:03:59.187
"2/8/2020 18:03:59.200",-1.047,0.238,1.199,2020-02-08 18:03:59.200
"2/8/2020 18:03:59.213",-0.832,0.402,1.109,2020-02-08 18:03:59.213
"2/8/2020 18:03:59.225",-0.563,0.527,1.063,2020-02-08 18:03:59.224
"2/8/2020 18:03:59.238",-0.277,0.625,1.02,2020-02-08 18:03:59.237
"2/8/2020 18:03:59.250",-0.008,0.676,0.883,2020-02-08 18:03:59.250
"2/8/2020 18:03:59.263",0.234,0.898,0.594,2020-02-08 18:03:59.263
"2/8/2020 18:03:59.275",0.355,1.129,0.313,2020-02-08 18:03:59.275
"2/8/2020 18:03:59.288",0.387,1.211,0.063,2020-02-08 18:03:59.288
"2/8/2020 18:03:59.300",0.375,1.297,-0.207,2020-02-08 18:03:59.299
"2/8/2020 18:03:59.313",0.328,1.309,-0.535,2020-02-08 18:03:59.312
"2/8/2020 18:03:59.325",0.262,1.242,-0.93,2020-02-08 18:03:59.325
"2/8/2020 18:03:59.338",0.113,1.133,-1.258,2020-02-08 18:03:59.338
"2/8/2020 18:03:59.350",-0.055,0.996,-1.418,2020-02-08 18:03:59.349
"2/8/2020 18:03:59.363",-0.242,0.898,-1.414,2020-02-08 18:03:59.362
"2/8/2020 18:03:59.375",-0.379,0.746,-1.313,2020-02-08 18:03:59.375
"2/8/2020 18:03:59.388",-0.496,0.566,-1.145,2020-02-08 18:03:59.388
"2/8/2020 18:03:59.400",-0.602,0.359,-0.973,2020-02-08 18:03:59.400
"2/8/2020 18:03:59.413",-0.605,0.281,-0.895,2020-02-08 18:03:59.413
"2/8/2020 18:03:59.425",-0.59,0.363,-0.934,2020-02-08 18:03:59.424
"2/8/2020 18:03:59.438",-0.609,0.574,-1.117,2020-02-08 18:03:59.437
"2/8/2020 18:03:59.450",-0.516,0.945,-1.207,2020-02-08 18:03:59.450
"2/8/2020 18:03:59.463",-0.348,1.301,-1.176,2020-02-08 18:03:59.463
"2/8/2020 18:03:59.475",-0.129,1.465,-1.047,2020-02-08 18:03:59.474
"2/8/2020 18:03:59.488",-0.012,1.578,-0.813,2020-02-08 18:03:59.487
"2/8/2020 18:03:59.500",-0.059,1.461,-0.602,2020-02-08 18:03:59.500
"2/8/2020 18:03:59.513",-0.184,1.23,-0.391,2020-02-08 18:03:59.513
"2/8/2020 18:03:59.525",-0.262,1.078,-0.191,2020-02-08 18:03:59.525
"2/8/2020 18:03:59.538",-0.297,0.984,0.004,2020-02-08 18:03:59.538
"2/8/2020 18:03:59.550",-0.285,0.988,0.066,2020-02-08 18:03:59.549
"2/8/2020 18:03:59.563",-0.16,1.012,0.078,2020-02-08 18:03:59.562
"2/8/2020 18:03:59.575",-0.012,1.016,0.188,2020-02-08 18:03:59.575
"2/8/2020 18:03:59.588",0.145,1.07,0.184,2020-02-08 18:03:59.588
"2/8/2020 18:03:59.600",0.246,1.172,0.102,2020-02-08 18:03:59.599
"2/8/2020 18:03:59.613",0.195,1.207,-0.098,2020-02-08 18:03:59.612
"2/8/2020 18:03:59.625",0.145,1.172,-0.281,2020-02-08 18:03:59.625
"2/8/2020 18:03:59.638",0.301,1.063,-0.262,2020-02-08 18:03:59.638
"2/8/2020 18:03:59.650",0.598,0.895,-0.133,2020-02-08 18:03:59.650
"2/8/2020 18:03:59.663",0.84,0.777,-0.016,2020-02-08 18:03:59.663
"2/8/2020 18:03:59.675",0.887,0.563,0.043,2020-02-08 18:03:59.674
"2/8/2020 18:03:59.688",0.887,0.367,0.117,2020-02-08 18:03:59.687
"2/8/2020 18:03:59.700",0.879,0.203,0.188,2020-02-08 18:03:59.700
"2/8/2020 18:03:59.713",0.813,0.023,0.262,2020-02-08 18:03:59.713
"2/8/2020 18:03:59.725",0.727,-0.078,0.332,2020-02-08 18:03:59.724
"2/8/2020 18:03:59.738",0.605,-0.254,0.402,2020-02-08 18:03:59.737
"2/8/2020 18:03:59.750",0.523,-0.43,0.477,2020-02-08 18:03:59.750
"2/8/2020 18:03:59.763",0.438,-0.563,0.598,2020-02-08 18:03:59.763
"2/8/2020 18:03:59.775",0.324,-0.668,0.742,2020-02-08 18:03:59.775
"2/8/2020 18:03:59.788",0.223,-0.785,0.871,2020-02-08 18:03:59.788
"2/8/2020 18:03:59.800",0.188,-0.926,0.965,2020-02-08 18:03:59.799
"2/8/2020 18:03:59.813",0.207,-1.035,1.008,2020-02-08 18:03:59.812
"2/8/2020 18:03:59.825",0.223,-1.059,0.953,2020-02-08 18:03:59.825
"2/8/2020 18:03:59.838",0.188,-1.043,0.848,2020-02-08 18:03:59.838
"2/8/2020 18:03:59.850",0.117,-1.059,0.73,2020-02-08 18:03:59.849
"2/8/2020 18:03:59.863",0.031,-1.176,0.633,2020-02-08 18:03:59.862
"2/8/2020 18:03:59.875",-0.043,-1.309,0.59,2020-02-08 18:03:59.875
"2/8/2020 18:03:59.888",-0.09,-1.391,0.582,2020-02-08 18:03:59.888
"2/8/2020 18:03:59.900",-0.145,-1.41,0.578,2020-02-08 18:03:59.900
"2/8/2020 18:03:59.913",-0.215,-1.402,0.57,2020-02-08 18:03:59.913
"2/8/2020 18:03:59.925",-0.316,-1.344,0.582,2020-02-08 18:03:59.924
"2/8/2020 18:03:59.938",-0.445,-1.32,0.613,2020-02-08 18:03:59.937
"2/8/2020 18:03:59.950",-0.617,-1.402,0.676,2020-02-08 18:03:59.950
"2/8/2020 18:03:59.963",-0.836,-1.48,0.727,2020-02-08 18:03:59.963
"2/8/2020 18:03:59.975",-1.121,-1.434,0.66,2020-02-08 18:03:59.974
"2/8/2020 18:03:59.988",-1.582,-1.242,0.699,2020-02-08 18:03:59.987
"2/8/2020 18:04:00.000",-1.684,-1.035,1.004,2020-02-08 18:04:00.000
"2/8/2020 18:04:00.013",-1.742,-0.879,1.32,2020-02-08 18:04:00.013
"2/8/2020 18:04:00.025",-1.945,-0.793,1.523,2020-02-08 18:04:00.025
"2/8/2020 18:04:00.038",-1.863,-0.484,1.531,2020-02-08 18:04:00.038
"2/8/2020 18:04:00.050",-1.676,-0.168,1.34,2020-02-08 18:04:00.049
"2/8/2020 18:04:00.063",-1.457,-0.004,1.117,2020-02-08 18:04:00.062
"2/8/2020 18:04:00.075",-1.199,0.129,1.02,2020-02-08 18:04:00.075
"2/8/2020 18:04:00.088",-0.926,0.102,1.043,2020-02-08 18:04:00.088
"2/8/2020 18:04:00.100",-0.652,0.016,1.133,2020-02-08 18:04:00.099
"2/8/2020 18:04:00.113",-0.383,-0.023,1.117,2020-02-08 18:04:00.112
"2/8/2020 18:04:00.125",-0.191,-0.043,1.039,2020-02-08 18:04:00.125
"2/8/2020 18:04:00.138",-0.102,-0.172,0.969,2020-02-08 18:04:00.138
"2/8/2020 18:04:00.150",-0.039,-0.348,0.934,2020-02-08 18:04:00.150
"2/8/2020 18:04:00.163",0.035,-0.367,0.922,2020-02-08 18:04:00.163
"2/8/2020 18:04:00.175",0.094,-0.418,0.961,2020-02-08 18:04:00.174
"2/8/2020 18:04:00.188",0.141,-0.449,0.992,2020-02-08 18:04:00.187
"2/8/2020 18:04:00.200",0.133,-0.531,1.008,2020-02-08 18:04:00.200
"2/8/2020 18:04:00.213",0.066,-0.625,1,2020-02-08 18:04:00.213
"2/8/2020 18:04:00.225",0,-0.691,0.996,2020-02-08 18:04:00.224
"2/8/2020 18:04:00.238",-0.043,-0.707,1.031,2020-02-08 18:04:00.237
"2/8/2020 18:04:00.250",-0.082,-0.688,1.086,2020-02-08 18:04:00.250
"2/8/2020 18:04:00.263",-0.137,-0.645,1.18,2020-02-08 18:04:00.263
"2/8/2020 18:04:00.275",-0.191,-0.645,1.285,2020-02-08 18:04:00.275
"2/8/2020 18:04:00.288",-0.258,-0.629,1.352,2020-02-08 18:04:00.288
"2/8/2020 18:04:00.300",-0.316,-0.621,1.379,2020-02-08 18:04:00.299
"2/8/2020 18:04:00.313",-0.383,-0.598,1.391,2020-02-08 18:04:00.312
"2/8/2020 18:04:00.325",-0.422,-0.539,1.398,2020-02-08 18:04:00.325
"2/8/2020 18:04:00.338",-0.434,-0.492,1.406,2020-02-08 18:04:00.338
"2/8/2020 18:04:00.350",-0.41,-0.434,1.398,2020-02-08 18:04:00.349
"2/8/2020 18:04:00.363",-0.371,-0.414,1.398,2020-02-08 18:04:00.362
"2/8/2020 18:04:00.375",-0.313,-0.402,1.402,2020-02-08 18:04:00.375
"2/8/2020 18:04:00.388",-0.234,-0.387,1.363,2020-02-08 18:04:00.388
"2/8/2020 18:04:00.400",-0.156,-0.367,1.27,2020-02-08 18:04:00.400
"2/8/2020 18:04:00.413",-0.063,-0.316,1.148,2020-02-08 18:04:00.413
"2/8/2020 18:04:00.425",0.031,-0.297,1.02,2020-02-08 18:04:00.424
"2/8/2020 18:04:00.438",0.133,-0.285,0.875,2020-02-08 18:04:00.437
"2/8/2020 18:04:00.450",0.219,-0.281,0.742,2020-02-08 18:04:00.450
"2/8/2020 18:04:00.463",0.273,-0.289,0.625,2020-02-08 18:04:00.463
"2/8/2020 18:04:00.475",0.305,-0.289,0.492,2020-02-08 18:04:00.474
"2/8/2020 18:04:00.488",0.316,-0.242,0.367,2020-02-08 18:04:00.487
"2/8/2020 18:04:00.500",0.273,-0.23,0.27,2020-02-08 18:04:00.500
"2/8/2020 18:04:00.513",0.234,-0.211,0.191,2020-02-08 18:04:00.513
"2/8/2020 18:04:00.525",0.191,-0.195,0.129,2020-02-08 18:04:00.525
"2/8/2020 18:04:00.538",0.16,-0.211,0.094,2020-02-08 18:04:00.538
"2/8/2020 18:04:00.550",0.129,-0.23,0.082,2020-02-08 18:04:00.549
"2/8/2020 18:04:00.563",0.133,-0.238,0.07,2020-02-08 18:04:00.562
"2/8/2020 18:04:00.575",0.152,-0.219,0.063,2020-02-08 18:04:00.575
"2/8/2020 18:04:00.588",0.184,-0.203,0.066,2020-02-08 18:04:00.588
"2/8/2020 18:04:00.600",0.25,-0.195,0.063,2020-02-08 18:04:00.599
"2/8/2020 18:04:00.613",0.324,-0.16,0.074,2020-02-08 18:04:00.612
"2/8/2020 18:04:00.625",0.414,-0.113,0.09,2020-02-08 18:04:00.625
"2/8/2020 18:04:00.638",0.504,-0.094,0.129,2020-02-08 18:04:00.638
"2/8/2020 18:04:00.650",0.586,-0.063,0.141,2020-02-08 18:04:00.650
"2/8/2020 18:04:00.663",0.652,0.043,0.098,2020-02-08 18:04:00.663
"2/8/2020 18:04:00.675",0.711,0.141,0.02,2020-02-08 18:04:00.674
"2/8/2020 18:04:00.688",0.777,0.172,-0.043,2020-02-08 18:04:00.687
"2/8/2020 18:04:00.700",0.871,0.113,-0.012,2020-02-08 18:04:00.700
"2/8/2020 18:04:00.713",0.934,0.027,0.047,2020-02-08 18:04:00.713
"2/8/2020 18:04:00.725",0.977,0.035,0.043,2020-02-08 18:04:00.724
"2/8/2020 18:04:00.738",1.055,0.031,-0.047,2020-02-08 18:04:00.737
"2/8/2020 18:04:00.750",1.145,0.035,-0.152,2020-02-08 18:04:00.750
"2/8/2020 18:04:00.763",1.254,-0.051,-0.207,2020-02-08 18:04:00.763
"2/8/2020 18:04:00.775",1.336,-0.098,-0.262,2020-02-08 18:04:00.775
"2/8/2020 18:04:00.788",1.332,-0.016,-0.297,2020-02-08 18:04:00.788
"2/8/2020 18:04:00.800",1.266,0.121,-0.348,2020-02-08 18:04:00.799
"2/8/2020 18:04:00.813",1.203,0.18,-0.418,2020-02-08 18:04:00.812
"2/8/2020 18:04:00.825",1.148,0.168,-0.465,2020-02-08 18:04:00.825
"2/8/2020 18:04:00.838",1.047,0.164,-0.488,2020-02-08 18:04:00.838
"2/8/2020 18:04:00.850",0.938,0.125,-0.594,2020-02-08 18:04:00.849
"2/8/2020 18:04:00.863",0.875,0.035,-0.746,2020-02-08 18:04:00.862
"2/8/2020 18:04:00.875",0.809,0.078,-0.883,2020-02-08 18:04:00.875
"2/8/2020 18:04:00.888",0.754,0.242,-0.938,2020-02-08 18:04:00.888
"2/8/2020 18:04:00.900",0.719,0.41,-0.871,2020-02-08 18:04:00.900
"2/8/2020 18:04:00.913",0.66,0.539,-0.777,2020-02-08 18:04:00.913
"2/8/2020 18:04:00.925",0.605,0.688,-0.707,2020-02-08 18:04:00.924
"2/8/2020 18:04:00.938",0.566,0.766,-0.711,2020-02-08 18:04:00.937
"2/8/2020 18:04:00.950",0.543,0.941,-0.934,2020-02-08 18:04:00.950
"2/8/2020 18:04:00.963",0.547,1.121,-1.359,2020-02-08 18:04:00.963
"2/8/2020 18:04:00.975",0.668,1.25,-1.844,2020-02-08 18:04:00.974
"2/8/2020 18:04:00.988",0.871,1.348,-2.113,2020-02-08 18:04:00.987
"2/8/2020 18:04:01.000",1,1.461,-2.098,2020-02-08 18:04:01.000
"2/8/2020 18:04:01.013",1.102,1.543,-2.02,2020-02-08 18:04:01.013
"2/8/2020 18:04:01.025",1.227,1.641,-2.016,2020-02-08 18:04:01.025
"2/8/2020 18:04:01.038",1.426,1.789,-2.098,2020-02-08 18:04:01.038
"2/8/2020 18:04:01.050",1.617,1.875,-2.133,2020-02-08 18:04:01.049
"2/8/2020 18:04:01.063",1.648,1.691,-2.074,2020-02-08 18:04:01.062
"2/8/2020 18:04:01.075",1.527,1.313,-1.742,2020-02-08 18:04:01.075
"2/8/2020 18:04:01.088",1.375,0.852,-1.16,2020-02-08 18:04:01.088
"2/8/2020 18:04:01.100",1.156,0.309,-0.551,2020-02-08 18:04:01.099
"2/8/2020 18:04:01.113",0.828,-0.246,-0.039,2020-02-08 18:04:01.112
"2/8/2020 18:04:01.125",0.52,-0.688,0.492,2020-02-08 18:04:01.125
"2/8/2020 18:04:01.138",0.242,-0.945,1.027,2020-02-08 18:04:01.138
"2/8/2020 18:04:01.150",0.027,-1.094,1.27,2020-02-08 18:04:01.150
"2/8/2020 18:04:01.163",-0.172,-1.336,1.223,2020-02-08 18:04:01.163
"2/8/2020 18:04:01.175",-0.367,-1.348,0.961,2020-02-08 18:04:01.174
"2/8/2020 18:04:01.188",-0.594,-1.109,0.582,2020-02-08 18:04:01.187
"2/8/2020 18:04:01.200",-0.785,-0.906,0.305,2020-02-08 18:04:01.200
"2/8/2020 18:04:01.213",-0.953,-0.977,0.199,2020-02-08 18:04:01.213
"2/8/2020 18:04:01.225",-1.109,-1.18,0.352,2020-02-08 18:04:01.224
"2/8/2020 18:04:01.238",-1.215,-1.27,0.59,2020-02-08 18:04:01.237
"2/8/2020 18:04:01.250",-1.508,-1.191,0.828,2020-02-08 18:04:01.250
"2/8/2020 18:04:01.263",-2.047,-1.059,1.133,2020-02-08 18:04:01.263
"2/8/2020 18:04:01.275",-2.102,-0.809,1.801,2020-02-08 18:04:01.275
"2/8/2020 18:04:01.288",-1.918,-0.398,2.316,2020-02-08 18:04:01.288
"2/8/2020 18:04:01.300",-1.688,0,2.301,2020-02-08 18:04:01.299
"2/8/2020 18:04:01.313",-1.277,0.266,2.035,2020-02-08 18:04:01.312
"2/8/2020 18:04:01.325",-0.938,0.41,1.898,2020-02-08 18:04:01.325
"2/8/2020 18:04:01.338",-0.609,0.527,1.949,2020-02-08 18:04:01.338
"2/8/2020 18:04:01.350",-0.414,0.715,2.113,2020-02-08 18:04:01.349
"2/8/2020 18:04:01.363",-0.262,0.879,2.227,2020-02-08 18:04:01.362
"2/8/2020 18:04:01.375",0.082,0.906,2.164,2020-02-08 18:04:01.375
"2/8/2020 18:04:01.388",0.512,0.973,2.078,2020-02-08 18:04:01.388
"2/8/2020 18:04:01.400",0.836,1.051,2.09,2020-02-08 18:04:01.400
"2/8/2020 18:04:01.413",0.941,1.133,2.203,2020-02-08 18:04:01.413
"2/8/2020 18:04:01.425",0.977,1.164,2.195,2020-02-08 18:04:01.424
"2/8/2020 18:04:01.438",0.965,1.176,2.137,2020-02-08 18:04:01.437
"2/8/2020 18:04:01.450",0.902,1.191,2.078,2020-02-08 18:04:01.450
"2/8/2020 18:04:01.463",0.762,1.195,2.043,2020-02-08 18:04:01.463
"2/8/2020 18:04:01.475",0.613,1.203,1.992,2020-02-08 18:04:01.474
"2/8/2020 18:04:01.488",0.438,1.273,1.977,2020-02-08 18:04:01.487
"2/8/2020 18:04:01.500",0.227,1.281,1.988,2020-02-08 18:04:01.500
"2/8/2020 18:04:01.513",0.039,1.273,1.977,2020-02-08 18:04:01.513
"2/8/2020 18:04:01.525",-0.141,1.305,1.945,2020-02-08 18:04:01.525
"2/8/2020 18:04:01.538",-0.297,1.355,1.887,2020-02-08 18:04:01.538
"2/8/2020 18:04:01.550",-0.473,1.395,1.84,2020-02-08 18:04:01.549
"2/8/2020 18:04:01.563",-0.633,1.492,1.809,2020-02-08 18:04:01.562
"2/8/2020 18:04:01.575",-0.777,1.652,1.816,2020-02-08 18:04:01.575
"2/8/2020 18:04:01.588",-0.91,1.77,1.813,2020-02-08 18:04:01.588
"2/8/2020 18:04:01.600",-1.047,1.906,1.816,2020-02-08 18:04:01.599
"2/8/2020 18:04:01.613",-1.191,2.129,1.781,2020-02-08 18:04:01.612
"2/8/2020 18:04:01.625",-1.375,2.395,1.734,2020-02-08 18:04:01.625
"2/8/2020 18:04:01.638",-1.598,2.676,1.719,2020-02-08 18:04:01.638
"2/8/2020 18:04:01.650",-1.777,2.926,1.625,2020-02-08 18:04:01.650
"2/8/2020 18:04:01.663",-1.957,3.152,1.512,2020-02-08 18:04:01.663
"2/8/2020 18:04:01.675",-2.063,3.328,1.324,2020-02-08 18:04:01.674
"2/8/2020 18:04:01.688",-2.164,3.484,1.078,2020-02-08 18:04:01.687
"2/8/2020 18:04:01.700",-2.223,3.582,0.891,2020-02-08 18:04:01.700
"2/8/2020 18:04:01.713",-2.242,3.52,0.746,2020-02-08 18:04:01.713
"2/8/2020 18:04:01.725",-2.227,3.43,0.586,2020-02-08 18:04:01.724
"2/8/2020 18:04:01.738",-2.223,3.367,0.402,2020-02-08 18:04:01.737
"2/8/2020 18:04:01.750",-2.246,3.363,0.227,2020-02-08 18:04:01.750
"2/8/2020 18:04:01.763",-2.25,3.348,0.141,2020-02-08 18:04:01.763
"2/8/2020 18:04:01.775",-2.223,3.32,0.059,2020-02-08 18:04:01.775
"2/8/2020 18:04:01.788",-2.145,3.305,-0.07,2020-02-08 18:04:01.788
"2/8/2020 18:04:01.800",-2.043,3.262,-0.219,2020-02-08 18:04:01.799
"2/8/2020 18:04:01.813",-1.926,3.207,-0.375,2020-02-08 18:04:01.812
"2/8/2020 18:04:01.825",-1.813,3.234,-0.523,2020-02-08 18:04:01.825
"2/8/2020 18:04:01.838",-1.719,3.215,-0.668,2020-02-08 18:04:01.838
"2/8/2020 18:04:01.850",-1.59,3.191,-0.797,2020-02-08 18:04:01.849
"2/8/2020 18:04:01.863",-1.422,3.086,-0.863,2020-02-08 18:04:01.862
"2/8/2020 18:04:01.875",-1.27,2.922,-0.941,2020-02-08 18:04:01.875
"2/8/2020 18:04:01.888",-1.105,2.75,-1.078,2020-02-08 18:04:01.888
"2/8/2020 18:04:01.900",-0.938,2.664,-1.234,2020-02-08 18:04:01.900
"2/8/2020 18:04:01.913",-0.84,2.656,-1.23,2020-02-08 18:04:01.913
"2/8/2020 18:04:01.925",-0.719,2.578,-1.039,2020-02-08 18:04:01.924
"2/8/2020 18:04:01.938",-0.609,2.438,-0.73,2020-02-08 18:04:01.937
"2/8/2020 18:04:01.950",-0.492,2.332,-0.414,2020-02-08 18:04:01.950
"2/8/2020 18:04:01.963",-0.406,2.254,-0.176,2020-02-08 18:04:01.963
"2/8/2020 18:04:01.975",-0.344,2.23,-0.219,2020-02-08 18:04:01.974
"2/8/2020 18:04:01.988",-0.313,2.383,-0.434,2020-02-08 18:04:01.987
"2/8/2020 18:04:02.000",-0.309,2.527,-0.391,2020-02-08 18:04:02.000
"2/8/2020 18:04:02.013",-0.281,2.418,-0.012,2020-02-08 18:04:02.013
"2/8/2020 18:04:02.025",-0.293,2.113,0.445,2020-02-08 18:04:02.025
"2/8/2020 18:04:02.038",-0.219,1.746,0.762,2020-02-08 18:04:02.038
"2/8/2020 18:04:02.050",-0.047,1.449,0.887,2020-02-08 18:04:02.049
"2/8/2020 18:04:02.063",0.18,1.262,0.813,2020-02-08 18:04:02.062
"2/8/2020 18:04:02.075",0.348,1.105,0.699,2020-02-08 18:04:02.075
"2/8/2020 18:04:02.088",0.445,1.027,0.656,2020-02-08 18:04:02.088
"2/8/2020 18:04:02.100",0.523,1.02,0.676,2020-02-08 18:04:02.099
"2/8/2020 18:04:02.113",0.59,1.027,0.711,2020-02-08 18:04:02.112
"2/8/2020 18:04:02.125",0.586,0.961,0.777,2020-02-08 18:04:02.125
"2/8/2020 18:04:02.138",0.582,0.672,0.945,2020-02-08 18:04:02.138
"2/8/2020 18:04:02.150",0.574,0.086,1.027,2020-02-08 18:04:02.150
"2/8/2020 18:04:02.163",0.484,-0.441,1.078,2020-02-08 18:04:02.163
"2/8/2020 18:04:02.175",0.297,-0.695,1.102,2020-02-08 18:04:02.174
"2/8/2020 18:04:02.188",0.117,-0.785,1.082,2020-02-08 18:04:02.187
"2/8/2020 18:04:02.200",-0.016,-0.969,1.105,2020-02-08 18:04:02.200
"2/8/2020 18:04:02.213",-0.184,-1.25,1.082,2020-02-08 18:04:02.213
"2/8/2020 18:04:02.225",-0.418,-1.559,1.031,2020-02-08 18:04:02.224
"2/8/2020 18:04:02.238",-0.645,-1.711,1.047,2020-02-08 18:04:02.237
"2/8/2020 18:04:02.250",-0.832,-1.512,1.094,2020-02-08 18:04:02.250
"2/8/2020 18:04:02.263",-0.973,-1.203,1.055,2020-02-08 18:04:02.263
"2/8/2020 18:04:02.275",-1.066,-1.16,1.004,2020-02-08 18:04:02.275
"2/8/2020 18:04:02.288",-1.141,-1.348,1.078,2020-02-08 18:04:02.288
"2/8/2020 18:04:02.300",-1.348,-1.422,1.234,2020-02-08 18:04:02.299
"2/8/2020 18:04:02.313",-1.715,-1.188,1.457,2020-02-08 18:04:02.312
"2/8/2020 18:04:02.325",-1.82,-0.758,1.648,2020-02-08 18:04:02.325
"2/8/2020 18:04:02.338",-1.715,-0.281,1.691,2020-02-08 18:04:02.338
"2/8/2020 18:04:02.350",-1.363,0.027,1.551,2020-02-08 18:04:02.349
"2/8/2020 18:04:02.363",-1.004,0.184,1.313,2020-02-08 18:04:02.362
"2/8/2020 18:04:02.375",-0.828,0.316,1.004,2020-02-08 18:04:02.375
"2/8/2020 18:04:02.388",-0.73,0.277,0.762,2020-02-08 18:04:02.388
"2/8/2020 18:04:02.400",-0.52,0.063,0.746,2020-02-08 18:04:02.400
"2/8/2020 18:04:02.413",-0.262,0.008,0.836,2020-02-08 18:04:02.413
"2/8/2020 18:04:02.425",-0.008,-0.027,0.922,2020-02-08 18:04:02.424
"2/8/2020 18:04:02.438",0.172,-0.074,0.926,2020-02-08 18:04:02.437
"2/8/2020 18:04:02.450",0.211,-0.105,0.828,2020-02-08 18:04:02.450
"2/8/2020 18:04:02.463",0.152,-0.18,0.715,2020-02-08 18:04:02.463
"2/8/2020 18:04:02.475",0.059,-0.324,0.645,2020-02-08 18:04:02.474
"2/8/2020 18:04:02.488",-0.027,-0.465,0.625,2020-02-08 18:04:02.487
"2/8/2020 18:04:02.500",-0.172,-0.598,0.648,2020-02-08 18:04:02.500
"2/8/2020 18:04:02.513",-0.348,-0.66,0.652,2020-02-08 18:04:02.513
"2/8/2020 18:04:02.525",-0.504,-0.68,0.637,2020-02-08 18:04:02.525
"2/8/2020 18:04:02.538",-0.563,-0.758,0.711,2020-02-08 18:04:02.538
"2/8/2020 18:04:02.550",-0.594,-0.828,0.824,2020-02-08 18:04:02.549
"2/8/2020 18:04:02.563",-0.598,-0.883,0.91,2020-02-08 18:04:02.562
"2/8/2020 18:04:02.575",-0.57,-0.926,0.91,2020-02-08 18:04:02.575
"2/8/2020 18:04:02.588",-0.504,-1.008,0.813,2020-02-08 18:04:02.588
"2/8/2020 18:04:02.600",-0.398,-1.027,0.676,2020-02-08 18:04:02.599
"2/8/2020 18:04:02.613",-0.293,-1,0.527,2020-02-08 18:04:02.612
"2/8/2020 18:04:02.625",-0.18,-0.996,0.367,2020-02-08 18:04:02.625
"2/8/2020 18:04:02.638",0.023,-1.039,0.184,2020-02-08 18:04:02.638
"2/8/2020 18:04:02.650",0.148,-1.055,0.074,2020-02-08 18:04:02.650
"2/8/2020 18:04:02.663",0.176,-0.969,0.043,2020-02-08 18:04:02.663
"2/8/2020 18:04:02.675",0.207,-0.891,0.027,2020-02-08 18:04:02.674
"2/8/2020 18:04:02.688",0.277,-0.781,-0.012,2020-02-08 18:04:02.687
"2/8/2020 18:04:02.700",0.348,-0.695,-0.055,2020-02-08 18:04:02.700
"2/8/2020 18:04:02.713",0.391,-0.582,-0.102,2020-02-08 18:04:02.713
"2/8/2020 18:04:02.725",0.41,-0.441,-0.125,2020-02-08 18:04:02.724
"2/8/2020 18:04:02.738",0.418,-0.34,-0.172,2020-02-08 18:04:02.737
"2/8/2020 18:04:02.750",0.461,-0.262,-0.238,2020-02-08 18:04:02.750
"2/8/2020 18:04:02.763",0.531,-0.23,-0.336,2020-02-08 18:04:02.763
"2/8/2020 18:04:02.775",0.594,-0.164,-0.453,2020-02-08 18:04:02.775
"2/8/2020 18:04:02.788",0.68,-0.09,-0.582,2020-02-08 18:04:02.788
"2/8/2020 18:04:02.800",0.746,-0.109,-0.691,2020-02-08 18:04:02.799
"2/8/2020 18:04:02.813",0.801,-0.191,-0.813,2020-02-08 18:04:02.812
"2/8/2020 18:04:02.825",0.863,-0.285,-0.969,2020-02-08 18:04:02.825
"2/8/2020 18:04:02.838",0.906,-0.406,-1.066,2020-02-08 18:04:02.838
"2/8/2020 18:04:02.850",0.934,-0.445,-1.145,2020-02-08 18:04:02.849
"2/8/2020 18:04:02.863",0.984,-0.441,-1.238,2020-02-08 18:04:02.862
"2/8/2020 18:04:02.875",1.047,-0.402,-1.391,2020-02-08 18:04:02.875
"2/8/2020 18:04:02.888",1.117,-0.227,-1.523,2020-02-08 18:04:02.888
"2/8/2020 18:04:02.900",1.141,0.066,-1.578,2020-02-08 18:04:02.900
"2/8/2020 18:04:02.913",1.094,0.43,-1.492,2020-02-08 18:04:02.913
"2/8/2020 18:04:02.925",1.012,0.754,-1.281,2020-02-08 18:04:02.924
"2/8/2020 18:04:02.938",0.961,0.934,-1.047,2020-02-08 18:04:02.937
"2/8/2020 18:04:02.950",0.93,0.945,-0.852,2020-02-08 18:04:02.950
"2/8/2020 18:04:02.963",0.934,1.043,-0.777,2020-02-08 18:04:02.963
"2/8/2020 18:04:02.975",0.902,1.109,-0.73,2020-02-08 18:04:02.974
"2/8/2020 18:04:02.988",0.891,1.047,-0.855,2020-02-08 18:04:02.987
"2/8/2020 18:04:03.000",0.855,1.164,-1.094,2020-02-08 18:04:03.000
"2/8/2020 18:04:03.013",0.84,1.34,-1.328,2020-02-08 18:04:03.013
"2/8/2020 18:04:03.025",0.867,1.594,-1.441,2020-02-08 18:04:03.025
"2/8/2020 18:04:03.038",0.844,1.922,-1.363,2020-02-08 18:04:03.038
"2/8/2020 18:04:03.050",0.77,2.066,-1.156,2020-02-08 18:04:03.049
"2/8/2020 18:04:03.063",0.703,2.02,-1.184,2020-02-08 18:04:03.062
"2/8/2020 18:04:03.075",0.715,1.973,-1.668,2020-02-08 18:04:03.075
"2/8/2020 18:04:03.088",0.82,1.824,-2.105,2020-02-08 18:04:03.088
"2/8/2020 18:04:03.100",0.895,1.543,-2.305,2020-02-08 18:04:03.099
"2/8/2020 18:04:03.113",0.895,1.102,-2.328,2020-02-08 18:04:03.112
"2/8/2020 18:04:03.125",0.902,0.645,-2.184,2020-02-08 18:04:03.125
"2/8/2020 18:04:03.138",1.008,0.34,-1.945,2020-02-08 18:04:03.138
"2/8/2020 18:04:03.150",1.188,0.273,-1.715,2020-02-08 18:04:03.150
"2/8/2020 18:04:03.163",1.328,0.262,-1.508,2020-02-08 18:04:03.163
"2/8/2020 18:04:03.175",1.445,0.285,-1.305,2020-02-08 18:04:03.174
"2/8/2020 18:04:03.188",1.559,0.309,-1,2020-02-08 18:04:03.187
"2/8/2020 18:04:03.200",1.516,0.234,-0.809,2020-02-08 18:04:03.200
"2/8/2020 18:04:03.213",1.41,0.172,-0.707,2020-02-08 18:04:03.213
"2/8/2020 18:04:03.225",1.32,0.074,-0.594,2020-02-08 18:04:03.224
"2/8/2020 18:04:03.238",1.281,-0.102,-0.43,2020-02-08 18:04:03.237
"2/8/2020 18:04:03.250",1.227,-0.418,-0.137,2020-02-08 18:04:03.250
"2/8/2020 18:04:03.263",1.02,-0.773,0.191,2020-02-08 18:04:03.263
"2/8/2020 18:04:03.275",0.664,-0.965,0.527,2020-02-08 18:04:03.275
"2/8/2020 18:04:03.288",0.324,-1.066,0.902,2020-02-08 18:04:03.288
"2/8/2020 18:04:03.300",0.121,-1.324,1.266,2020-02-08 18:04:03.299
"2/8/2020 18:04:03.313",0.02,-1.605,1.516,2020-02-08 18:04:03.312
"2/8/2020 18:04:03.325",-0.082,-1.699,1.566,2020-02-08 18:04:03.325
"2/8/2020 18:04:03.338",-0.203,-1.496,1.414,2020-02-08 18:04:03.338
"2/8/2020 18:04:03.350",-0.32,-1.102,1.273,2020-02-08 18:04:03.349
"2/8/2020 18:04:03.363",-0.387,-0.723,1.215,2020-02-08 18:04:03.362
"2/8/2020 18:04:03.375",-0.32,-0.609,1.188,2020-02-08 18:04:03.375
"2/8/2020 18:04:03.388",-0.223,-0.813,1.145,2020-02-08 18:04:03.388
"2/8/2020 18:04:03.400",-0.234,-1.066,1.098,2020-02-08 18:04:03.400
"2/8/2020 18:04:03.413",-0.328,-1.172,1.047,2020-02-08 18:04:03.413
"2/8/2020 18:04:03.425",-0.402,-1.02,0.953,2020-02-08 18:04:03.424
"2/8/2020 18:04:03.438",-0.422,-0.688,0.816,2020-02-08 18:04:03.437
"2/8/2020 18:04:03.450",-0.367,-0.434,0.688,2020-02-08 18:04:03.450
"2/8/2020 18:04:03.463",-0.336,-0.469,0.633,2020-02-08 18:04:03.463
"2/8/2020 18:04:03.475",-0.445,-0.645,0.676,2020-02-08 18:04:03.474
"2/8/2020 18:04:03.488",-0.738,-0.723,0.832,2020-02-08 18:04:03.487
"2/8/2020 18:04:03.500",-0.969,-0.566,0.977,2020-02-08 18:04:03.500
"2/8/2020 18:04:03.513",-0.914,-0.305,1.145,2020-02-08 18:04:03.513
"2/8/2020 18:04:03.525",-0.844,-0.141,1.137,2020-02-08 18:04:03.525
"2/8/2020 18:04:03.538",-0.781,-0.047,1.027,2020-02-08 18:04:03.538
"2/8/2020 18:04:03.550",-0.715,0.043,0.898,2020-02-08 18:04:03.549
"2/8/2020 18:04:03.563",-0.652,0.16,0.883,2020-02-08 18:04:03.562
"2/8/2020 18:04:03.575",-0.617,0.215,0.941,2020-02-08 18:04:03.575
"2/8/2020 18:04:03.588",-0.547,0.238,1.008,2020-02-08 18:04:03.588
"2/8/2020 18:04:03.600",-0.492,0.199,1.051,2020-02-08 18:04:03.599
"2/8/2020 18:04:03.613",-0.406,0.148,1.027,2020-02-08 18:04:03.612
"2/8/2020 18:04:03.625",-0.348,0.125,0.965,2020-02-08 18:04:03.625
"2/8/2020 18:04:03.638",-0.273,0.082,0.914,2020-02-08 18:04:03.638
"2/8/2020 18:04:03.650",-0.137,0.039,0.883,2020-02-08 18:04:03.650
"2/8/2020 18:04:03.663",0.012,0.004,0.918,2020-02-08 18:04:03.663
"2/8/2020 18:04:03.675",0.117,-0.023,0.996,2020-02-08 18:04:03.674
"2/8/2020 18:04:03.688",0.195,-0.102,1.086,2020-02-08 18:04:03.687
"2/8/2020 18:04:03.700",0.281,-0.184,1.109,2020-02-08 18:04:03.700
"2/8/2020 18:04:03.713",0.375,-0.223,1.063,2020-02-08 18:04:03.713
"2/8/2020 18:04:03.725",0.469,-0.223,1.031,2020-02-08 18:04:03.724
"2/8/2020 18:04:03.738",0.527,-0.266,1.082,2020-02-08 18:04:03.737
"2/8/2020 18:04:03.750",0.531,-0.316,1.145,2020-02-08 18:04:03.750
"2/8/2020 18:04:03.763",0.5,-0.328,1.234,2020-02-08 18:04:03.763
"2/8/2020 18:04:03.775",0.469,-0.34,1.313,2020-02-08 18:04:03.775
"2/8/2020 18:04:03.788",0.457,-0.34,1.371,2020-02-08 18:04:03.788
"2/8/2020 18:04:03.800",0.434,-0.332,1.418,2020-02-08 18:04:03.799
"2/8/2020 18:04:03.813",0.398,-0.336,1.457,2020-02-08 18:04:03.812
"2/8/2020 18:04:03.825",0.344,-0.328,1.484,2020-02-08 18:04:03.825
"2/8/2020 18:04:03.838",0.293,-0.309,1.5,2020-02-08 18:04:03.838
"2/8/2020 18:04:03.850",0.242,-0.27,1.504,2020-02-08 18:04:03.849
"2/8/2020 18:04:03.863",0.199,-0.227,1.516,2020-02-08 18:04:03.862
"2/8/2020 18:04:03.875",0.145,-0.184,1.523,2020-02-08 18:04:03.875
"2/8/2020 18:04:03.888",0.055,-0.133,1.523,2020-02-08 18:04:03.888
"2/8/2020 18:04:03.900",-0.012,-0.098,1.504,2020-02-08 18:04:03.900
"2/8/2020 18:04:03.913",-0.066,-0.059,1.469,2020-02-08 18:04:03.913
"2/8/2020 18:04:03.925",-0.133,-0.016,1.434,2020-02-08 18:04:03.924
"2/8/2020 18:04:03.938",-0.211,0.023,1.395,2020-02-08 18:04:03.937
"2/8/2020 18:04:03.950",-0.293,0.09,1.387,2020-02-08 18:04:03.950
"2/8/2020 18:04:03.963",-0.375,0.18,1.391,2020-02-08 18:04:03.963
"2/8/2020 18:04:03.975",-0.422,0.273,1.359,2020-02-08 18:04:03.974
"2/8/2020 18:04:03.988",-0.457,0.359,1.281,2020-02-08 18:04:03.987
"2/8/2020 18:04:04.000",-0.48,0.41,1.164,2020-02-08 18:04:04.000
"2/8/2020 18:04:04.013",-0.484,0.453,1.043,2020-02-08 18:04:04.013
"2/8/2020 18:04:04.025",-0.484,0.488,0.945,2020-02-08 18:04:04.025
"2/8/2020 18:04:04.038",-0.461,0.457,0.891,2020-02-08 18:04:04.038
"2/8/2020 18:04:04.050",-0.434,0.332,0.824,2020-02-08 18:04:04.049
"2/8/2020 18:04:04.063",-0.41,0.215,0.742,2020-02-08 18:04:04.062
"2/8/2020 18:04:04.075",-0.367,0.117,0.594,2020-02-08 18:04:04.075
"2/8/2020 18:04:04.088",-0.32,0.043,0.43,2020-02-08 18:04:04.088
"2/8/2020 18:04:04.100",-0.301,-0.043,0.305,2020-02-08 18:04:04.099
"2/8/2020 18:04:04.113",-0.281,-0.117,0.199,2020-02-08 18:04:04.112
"2/8/2020 18:04:04.125",-0.273,-0.168,0.113,2020-02-08 18:04:04.125
"2/8/2020 18:04:04.138",-0.254,-0.164,0.039,2020-02-08 18:04:04.138
"2/8/2020 18:04:04.150",-0.258,-0.098,0.008,2020-02-08 18:04:04.150
"2/8/2020 18:04:04.163",-0.285,-0.031,-0.039,2020-02-08 18:04:04.163
"2/8/2020 18:04:04.175",-0.25,-0.035,-0.105,2020-02-08 18:04:04.174
"2/8/2020 18:04:04.188",-0.191,-0.094,-0.141,2020-02-08 18:04:04.187
"2/8/2020 18:04:04.200",-0.137,-0.164,-0.133,2020-02-08 18:04:04.200
"2/8/2020 18:04:04.213",-0.078,-0.164,-0.074,2020-02-08 18:04:04.213
"2/8/2020 18:04:04.225",-0.027,-0.074,0.082,2020-02-08 18:04:04.224
"2/8/2020 18:04:04.238",0.039,0.004,0.266,2020-02-08 18:04:04.237
"2/8/2020 18:04:04.250",0.133,-0.031,0.461,2020-02-08 18:04:04.250
"2/8/2020 18:04:04.263",0.219,-0.195,0.699,2020-02-08 18:04:04.263
"2/8/2020 18:04:04.275",0.23,-0.441,0.969,2020-02-08 18:04:04.275
"2/8/2020 18:04:04.288",0.211,-0.699,1.383,2020-02-08 18:04:04.288
"2/8/2020 18:04:04.300",0.141,-0.898,1.828,2020-02-08 18:04:04.299
"2/8/2020 18:04:04.313",0.074,-1.164,2.145,2020-02-08 18:04:04.312
"2/8/2020 18:04:04.325",0.098,-1.438,2.418,2020-02-08 18:04:04.325
"2/8/2020 18:04:04.338",0.234,-1.832,2.535,2020-02-08 18:04:04.338
"2/8/2020 18:04:04.350",0.316,-1.93,2.461,2020-02-08 18:04:04.349
"2/8/2020 18:04:04.363",0.191,-1.461,2.5,2020-02-08 18:04:04.362
"2/8/2020 18:04:04.375",-0.305,-1.246,2.59,2020-02-08 18:04:04.375
"2/8/2020 18:04:04.388",-0.449,-1.195,2.563,2020-02-08 18:04:04.388
"2/8/2020 18:04:04.400",-0.434,-0.984,2.387,2020-02-08 18:04:04.400
"2/8/2020 18:04:04.413",-0.52,-0.715,2.262,2020-02-08 18:04:04.413
"2/8/2020 18:04:04.425",-0.418,-0.43,2.164,2020-02-08 18:04:04.424
"2/8/2020 18:04:04.438",-0.051,-0.164,2.063,2020-02-08 18:04:04.437
"2/8/2020 18:04:04.450",0.34,-0.031,1.977,2020-02-08 18:04:04.450
"2/8/2020 18:04:04.463",0.598,0,2.008,2020-02-08 18:04:04.463
"2/8/2020 18:04:04.475",0.797,-0.051,1.969,2020-02-08 18:04:04.474
"2/8/2020 18:04:04.488",1.082,0.145,1.922,2020-02-08 18:04:04.487
"2/8/2020 18:04:04.500",1.051,0.398,1.688,2020-02-08 18:04:04.500
"2/8/2020 18:04:04.513",0.84,0.449,1.328,2020-02-08 18:04:04.513
"2/8/2020 18:04:04.525",0.691,0.422,1.074,2020-02-08 18:04:04.525
"2/8/2020 18:04:04.538",0.594,0.355,0.82,2020-02-08 18:04:04.538
"2/8/2020 18:04:04.550",0.57,0.297,0.559,2020-02-08 18:04:04.549
"2/8/2020 18:04:04.563",0.695,0.387,0.332,2020-02-08 18:04:04.562
"2/8/2020 18:04:04.575",0.766,0.461,0.156,2020-02-08 18:04:04.575
"2/8/2020 18:04:04.588",0.809,0.508,-0.012,2020-02-08 18:04:04.588
"2/8/2020 18:04:04.600",0.82,0.465,-0.156,2020-02-08 18:04:04.599
"2/8/2020 18:04:04.613",0.707,0.246,-0.316,2020-02-08 18:04:04.612
"2/8/2020 18:04:04.625",0.461,0,-0.535,2020-02-08 18:04:04.625
"2/8/2020 18:04:04.638",0.18,-0.32,-0.777,2020-02-08 18:04:04.638
"2/8/2020 18:04:04.650",-0.145,-0.527,-1.051,2020-02-08 18:04:04.650
"2/8/2020 18:04:04.663",-0.531,-0.633,-1.367,2020-02-08 18:04:04.663
"2/8/2020 18:04:04.675",-1.066,-0.605,-1.82,2020-02-08 18:04:04.674
"2/8/2020 18:04:04.688",-1.602,-0.125,-2.48,2020-02-08 18:04:04.687
"2/8/2020 18:04:04.700",-1.707,0.723,-2.965,2020-02-08 18:04:04.700
"2/8/2020 18:04:04.713",-1.258,0.898,-2.914,2020-02-08 18:04:04.713
"2/8/2020 18:04:04.725",-0.461,0.598,-2.688,2020-02-08 18:04:04.724
"2/8/2020 18:04:04.738",0.52,0.203,-2.703,2020-02-08 18:04:04.737
"2/8/2020 18:04:04.750",1.332,-0.031,-2.574,2020-02-08 18:04:04.750
"2/8/2020 18:04:04.763",1.504,-0.18,-2.117,2020-02-08 18:04:04.763
"2/8/2020 18:04:04.775",1.016,-0.391,-1.777,2020-02-08 18:04:04.775
"2/8/2020 18:04:04.788",0.555,-0.547,-1.59,2020-02-08 18:04:04.788
"2/8/2020 18:04:04.800",0.141,-0.367,-1.688,2020-02-08 18:04:04.799
"2/8/2020 18:04:04.813",-0.484,0.301,-1.531,2020-02-08 18:04:04.812
"2/8/2020 18:04:04.825",-1.402,0.852,-1.16,2020-02-08 18:04:04.825
"2/8/2020 18:04:04.838",-3.195,0.805,-1.324,2020-02-08 18:04:04.838
"2/8/2020 18:04:04.850",-3.543,0.699,-1.16,2020-02-08 18:04:04.849
"2/8/2020 18:04:04.863",-1.875,0.316,-0.66,2020-02-08 18:04:04.862
"2/8/2020 18:04:04.875",-0.945,0.074,-0.883,2020-02-08 18:04:04.875
"2/8/2020 18:04:04.888",-0.902,0.164,-1.156,2020-02-08 18:04:04.888
"2/8/2020 18:04:04.900",-0.828,0.285,-1.031,2020-02-08 18:04:04.900
"2/8/2020 18:04:04.913",-0.66,0.223,-0.707,2020-02-08 18:04:04.913
"2/8/2020 18:04:04.925",-0.531,0.074,-0.398,2020-02-08 18:04:04.924
"2/8/2020 18:04:04.938",-0.234,0.113,-0.137,2020-02-08 18:04:04.937
"2/8/2020 18:04:04.950",0.207,0.293,0,2020-02-08 18:04:04.950
"2/8/2020 18:04:04.963",0.461,0.516,0.152,2020-02-08 18:04:04.963
"2/8/2020 18:04:04.975",0.609,0.531,0.367,2020-02-08 18:04:04.974
"2/8/2020 18:04:04.988",0.711,0.379,0.633,2020-02-08 18:04:04.987
"2/8/2020 18:04:05.000",0.801,0.238,0.82,2020-02-08 18:04:05.000
"2/8/2020 18:04:05.013",0.91,0.43,1.055,2020-02-08 18:04:05.013
"2/8/2020 18:04:05.025",0.969,0.719,1.363,2020-02-08 18:04:05.025
"2/8/2020 18:04:05.038",0.957,0.68,1.684,2020-02-08 18:04:05.038
"2/8/2020 18:04:05.050",0.848,0.32,1.766,2020-02-08 18:04:05.049
"2/8/2020 18:04:05.063",0.742,0.09,1.617,2020-02-08 18:04:05.062
"2/8/2020 18:04:05.075",0.625,0.121,1.633,2020-02-08 18:04:05.075
"2/8/2020 18:04:05.088",0.488,0.105,1.895,2020-02-08 18:04:05.088
"2/8/2020 18:04:05.100",0.43,-0.016,2.027,2020-02-08 18:04:05.099
"2/8/2020 18:04:05.113",0.43,-0.09,1.852,2020-02-08 18:04:05.112
"2/8/2020 18:04:05.125",0.395,-0.094,1.535,2020-02-08 18:04:05.125
"2/8/2020 18:04:05.138",0.309,-0.176,1.348,2020-02-08 18:04:05.138
"2/8/2020 18:04:05.150",0.215,-0.281,1.387,2020-02-08 18:04:05.150
"2/8/2020 18:04:05.163",0.184,-0.332,1.523,2020-02-08 18:04:05.163
"2/8/2020 18:04:05.175",0.219,-0.336,1.609,2020-02-08 18:04:05.174
"2/8/2020 18:04:05.188",0.199,-0.289,1.609,2020-02-08 18:04:05.187
"2/8/2020 18:04:05.200",0.141,-0.32,1.645,2020-02-08 18:04:05.200
"2/8/2020 18:04:05.213",0.09,-0.406,1.758,2020-02-08 18:04:05.213
"2/8/2020 18:04:05.225",0.043,-0.406,1.902,2020-02-08 18:04:05.224
"2/8/2020 18:04:05.238",0.016,-0.293,2.063,2020-02-08 18:04:05.237
"2/8/2020 18:04:05.250",-0.055,-0.324,2.254,2020-02-08 18:04:05.250
"2/8/2020 18:04:05.263",-0.152,-0.363,2.367,2020-02-08 18:04:05.263
"2/8/2020 18:04:05.275",-0.262,-0.277,2.301,2020-02-08 18:04:05.275
"2/8/2020 18:04:05.288",-0.355,0.051,2.266,2020-02-08 18:04:05.288
"2/8/2020 18:04:05.300",-0.391,0.492,2.148,2020-02-08 18:04:05.299
"2/8/2020 18:04:05.313",-0.426,1.012,1.996,2020-02-08 18:04:05.312
"2/8/2020 18:04:05.325",-0.422,1.496,1.746,2020-02-08 18:04:05.325
"2/8/2020 18:04:05.338",-0.461,1.773,1.391,2020-02-08 18:04:05.338
"2/8/2020 18:04:05.350",-0.52,1.895,0.992,2020-02-08 18:04:05.349
"2/8/2020 18:04:05.363",-0.563,1.77,0.656,2020-02-08 18:04:05.362
"2/8/2020 18:04:05.375",-0.578,1.488,0.332,2020-02-08 18:04:05.375
"2/8/2020 18:04:05.388",-0.523,1.195,0.055,2020-02-08 18:04:05.388
"2/8/2020 18:04:05.400",-0.457,0.891,-0.125,2020-02-08 18:04:05.400
"2/8/2020 18:04:05.413",-0.469,0.602,-0.266,2020-02-08 18:04:05.413
"2/8/2020 18:04:05.425",-0.523,0.363,-0.375,2020-02-08 18:04:05.424
"2/8/2020 18:04:05.438",-0.5,0.25,-0.438,2020-02-08 18:04:05.437
"2/8/2020 18:04:05.450",-0.395,0.215,-0.465,2020-02-08 18:04:05.450
"2/8/2020 18:04:05.463",-0.234,0.195,-0.492,2020-02-08 18:04:05.463
"2/8/2020 18:04:05.475",-0.082,0.191,-0.57,2020-02-08 18:04:05.474
"2/8/2020 18:04:05.488",0.043,0.105,-0.656,2020-02-08 18:04:05.487
"2/8/2020 18:04:05.500",0.078,-0.063,-0.734,2020-02-08 18:04:05.500
"2/8/2020 18:04:05.513",0.109,-0.422,-0.668,2020-02-08 18:04:05.513
"2/8/2020 18:04:05.525",0.133,-0.766,-0.563,2020-02-08 18:04:05.525
"2/8/2020 18:04:05.538",0.199,-0.945,-0.453,2020-02-08 18:04:05.538
"2/8/2020 18:04:05.550",0.309,-0.961,-0.406,2020-02-08 18:04:05.549
"2/8/2020 18:04:05.563",0.461,-0.965,-0.406,2020-02-08 18:04:05.562
"2/8/2020 18:04:05.575",0.668,-0.977,-0.363,2020-02-08 18:04:05.575
"2/8/2020 18:04:05.588",0.828,-1.105,-0.316,2020-02-08 18:04:05.588
"2/8/2020 18:04:05.600",0.805,-1.441,-0.227,2020-02-08 18:04:05.599
"2/8/2020 18:04:05.613",0.641,-1.805,-0.141,2020-02-08 18:04:05.612
"2/8/2020 18:04:05.625",0.496,-2.031,-0.137,2020-02-08 18:04:05.625
"2/8/2020 18:04:05.638",0.477,-2.18,-0.074,2020-02-08 18:04:05.638
"2/8/2020 18:04:05.650",0.563,-2.383,0.148,2020-02-08 18:04:05.650
"2/8/2020 18:04:05.663",0.66,-2.418,0.297,2020-02-08 18:04:05.663
"2/8/2020 18:04:05.675",0.652,-2.316,0.348,2020-02-08 18:04:05.674
"2/8/2020 18:04:05.688",0.668,-2.07,0.395,2020-02-08 18:04:05.687
"2/8/2020 18:04:05.700",0.719,-1.742,0.445,2020-02-08 18:04:05.700
"2/8/2020 18:04:05.713",0.777,-1.574,0.504,2020-02-08 18:04:05.713
"2/8/2020 18:04:05.725",0.805,-1.652,0.566,2020-02-08 18:04:05.724
"2/8/2020 18:04:05.738",0.824,-1.848,0.586,2020-02-08 18:04:05.737
"2/8/2020 18:04:05.750",0.914,-1.969,0.566,2020-02-08 18:04:05.750
"2/8/2020 18:04:05.763",1,-1.988,0.527,2020-02-08 18:04:05.763
"2/8/2020 18:04:05.775",1.051,-1.879,0.414,2020-02-08 18:04:05.775
"2/8/2020 18:04:05.788",1.125,-1.695,0.254,2020-02-08 18:04:05.788
"2/8/2020 18:04:05.800",1.09,-1.59,0.086,2020-02-08 18:04:05.799
"2/8/2020 18:04:05.813",1.02,-1.461,-0.051,2020-02-08 18:04:05.812
"2/8/2020 18:04:05.825",0.93,-1.313,-0.129,2020-02-08 18:04:05.825
"2/8/2020 18:04:05.838",0.789,-1.258,-0.172,2020-02-08 18:04:05.838
"2/8/2020 18:04:05.850",0.594,-1.313,-0.168,2020-02-08 18:04:05.849
"2/8/2020 18:04:05.863",0.336,-1.375,-0.16,2020-02-08 18:04:05.862
"2/8/2020 18:04:05.875",0.063,-1.277,-0.098,2020-02-08 18:04:05.875
"2/8/2020 18:04:05.888",-0.367,-1.09,0.152,2020-02-08 18:04:05.888
"2/8/2020 18:04:05.900",-0.891,-0.742,0.496,2020-02-08 18:04:05.900
"2/8/2020 18:04:05.913",-1.367,-0.457,0.781,2020-02-08 18:04:05.913
"2/8/2020 18:04:05.925",-1.434,-0.363,1.023,2020-02-08 18:04:05.924
"2/8/2020 18:04:05.938",-1.148,-0.383,0.918,2020-02-08 18:04:05.937
"2/8/2020 18:04:05.950",-0.598,-0.363,0.391,2020-02-08 18:04:05.950
"2/8/2020 18:04:05.963",-0.07,-0.293,-0.25,2020-02-08 18:04:05.963
"2/8/2020 18:04:05.975",0.32,0.016,-0.695,2020-02-08 18:04:05.974
"2/8/2020 18:04:05.988",0.555,0.531,-0.789,2020-02-08 18:04:05.987
"2/8/2020 18:04:06.000",0.523,0.691,-0.656,2020-02-08 18:04:06.000
"2/8/2020 18:04:06.013",0.5,0.504,-0.5,2020-02-08 18:04:06.013
"2/8/2020 18:04:06.025",0.508,0.285,-0.391,2020-02-08 18:04:06.025
"2/8/2020 18:04:06.038",0.516,0.047,-0.32,2020-02-08 18:04:06.038
"2/8/2020 18:04:06.050",0.496,-0.18,-0.23,2020-02-08 18:04:06.049
"2/8/2020 18:04:06.063",0.496,-0.348,-0.289,2020-02-08 18:04:06.062
"2/8/2020 18:04:06.075",0.613,-0.496,-0.426,2020-02-08 18:04:06.075
"2/8/2020 18:04:06.088",0.824,-0.582,-0.43,2020-02-08 18:04:06.088
"2/8/2020 18:04:06.100",1.008,-0.59,-0.324,2020-02-08 18:04:06.099
"2/8/2020 18:04:06.113",1.016,-0.473,-0.277,2020-02-08 18:04:06.112
"2/8/2020 18:04:06.125",0.953,-0.324,-0.332,2020-02-08 18:04:06.125
"2/8/2020 18:04:06.138",0.953,-0.234,-0.402,2020-02-08 18:04:06.138
"2/8/2020 18:04:06.150",1.031,-0.27,-0.43,2020-02-08 18:04:06.150
"2/8/2020 18:04:06.163",1.105,-0.355,-0.41,2020-02-08 18:04:06.163
"2/8/2020 18:04:06.175",1.117,-0.41,-0.363,2020-02-08 18:04:06.174
"2/8/2020 18:04:06.188",1.039,-0.41,-0.293,2020-02-08 18:04:06.187
"2/8/2020 18:04:06.200",0.93,-0.383,-0.238,2020-02-08 18:04:06.200
"2/8/2020 18:04:06.213",0.832,-0.344,-0.223,2020-02-08 18:04:06.213
"2/8/2020 18:04:06.225",0.758,-0.289,-0.223,2020-02-08 18:04:06.224
"2/8/2020 18:04:06.238",0.703,-0.234,-0.211,2020-02-08 18:04:06.237
"2/8/2020 18:04:06.250",0.645,-0.184,-0.188,2020-02-08 18:04:06.250
"2/8/2020 18:04:06.263",0.566,-0.148,-0.176,2020-02-08 18:04:06.263
"2/8/2020 18:04:06.275",0.488,-0.129,-0.18,2020-02-08 18:04:06.275
"2/8/2020 18:04:06.288",0.422,-0.129,-0.203,2020-02-08 18:04:06.288
"2/8/2020 18:04:06.300",0.352,-0.117,-0.277,2020-02-08 18:04:06.299
"2/8/2020 18:04:06.313",0.281,-0.039,-0.367,2020-02-08 18:04:06.312
"2/8/2020 18:04:06.325",0.199,0.109,-0.441,2020-02-08 18:04:06.325
"2/8/2020 18:04:06.338",0.121,0.211,-0.574,2020-02-08 18:04:06.338
"2/8/2020 18:04:06.350",0.07,0.273,-0.664,2020-02-08 18:04:06.349
"2/8/2020 18:04:06.363",0.008,0.348,-0.688,2020-02-08 18:04:06.362
"2/8/2020 18:04:06.375",-0.109,0.461,-0.602,2020-02-08 18:04:06.375
"2/8/2020 18:04:06.388",-0.238,0.461,-0.508,2020-02-08 18:04:06.388
"2/8/2020 18:04:06.400",-0.293,0.277,-0.453,2020-02-08 18:04:06.400
"2/8/2020 18:04:06.413",-0.219,0.113,-0.395,2020-02-08 18:04:06.413
"2/8/2020 18:04:06.425",-0.125,0.055,-0.355,2020-02-08 18:04:06.424
"2/8/2020 18:04:06.438",-0.063,0.16,-0.258,2020-02-08 18:04:06.437
"2/8/2020 18:04:06.450",-0.02,0.297,-0.055,2020-02-08 18:04:06.450
"2/8/2020 18:04:06.463",0.051,0.305,0.156,2020-02-08 18:04:06.463
"2/8/2020 18:04:06.475",0.184,0.215,0.406,2020-02-08 18:04:06.474
"2/8/2020 18:04:06.488",0.281,0.027,0.664,2020-02-08 18:04:06.487
"2/8/2020 18:04:06.500",0.363,-0.172,1.043,2020-02-08 18:04:06.500
"2/8/2020 18:04:06.513",0.301,-0.355,1.602,2020-02-08 18:04:06.513
"2/8/2020 18:04:06.525",0.215,-0.656,2.152,2020-02-08 18:04:06.525
"2/8/2020 18:04:06.538",0.195,-1.141,2.633,2020-02-08 18:04:06.538
"2/8/2020 18:04:06.550",0.246,-1.574,3.031,2020-02-08 18:04:06.549
"2/8/2020 18:04:06.563",0.156,-1.652,3.602,2020-02-08 18:04:06.562
"2/8/2020 18:04:06.575",-0.078,-1.977,4.461,2020-02-08 18:04:06.575
"2/8/2020 18:04:06.588",-0.332,-2.645,4.785,2020-02-08 18:04:06.588
"2/8/2020 18:04:06.600",-0.289,-2.465,4.25,2020-02-08 18:04:06.599
"2/8/2020 18:04:06.613",-0.258,-1.734,3.488,2020-02-08 18:04:06.612
"2/8/2020 18:04:06.625",-0.699,-0.949,3.008,2020-02-08 18:04:06.625
"2/8/2020 18:04:06.638",-1.469,-0.242,2.703,2020-02-08 18:04:06.638
"2/8/2020 18:04:06.650",-1.637,0.133,2.707,2020-02-08 18:04:06.650
"2/8/2020 18:04:06.663",-1.238,-0.016,2.977,2020-02-08 18:04:06.663
"2/8/2020 18:04:06.675",-0.801,-0.172,3.188,2020-02-08 18:04:06.674
"2/8/2020 18:04:06.688",-0.531,-0.156,3.234,2020-02-08 18:04:06.687
"2/8/2020 18:04:06.700",-0.344,0.172,3.09,2020-02-08 18:04:06.700
"2/8/2020 18:04:06.713",-0.418,0.613,2.676,2020-02-08 18:04:06.713
"2/8/2020 18:04:06.725",-0.527,0.938,2.102,2020-02-08 18:04:06.724
"2/8/2020 18:04:06.738",-0.34,0.93,1.742,2020-02-08 18:04:06.737
"2/8/2020 18:04:06.750",-0.012,0.668,1.5,2020-02-08 18:04:06.750
"2/8/2020 18:04:06.763",0.172,0.496,1.207,2020-02-08 18:04:06.763
"2/8/2020 18:04:06.775",0.246,0.336,0.922,2020-02-08 18:04:06.775
"2/8/2020 18:04:06.788",0.301,0.238,0.617,2020-02-08 18:04:06.788
"2/8/2020 18:04:06.800",0.23,0.184,0.258,2020-02-08 18:04:06.799
"2/8/2020 18:04:06.813",0.027,0.176,-0.105,2020-02-08 18:04:06.812
"2/8/2020 18:04:06.825",-0.328,0.191,-0.445,2020-02-08 18:04:06.825
"2/8/2020 18:04:06.838",-0.793,0.027,-0.758,2020-02-08 18:04:06.838
"2/8/2020 18:04:06.850",-1.254,-0.145,-1.121,2020-02-08 18:04:06.849
"2/8/2020 18:04:06.863",-1.535,-0.379,-1.434,2020-02-08 18:04:06.862
"2/8/2020 18:04:06.875",-1.566,-0.555,-1.641,2020-02-08 18:04:06.875
"2/8/2020 18:04:06.888",-1.355,-0.539,-1.805,2020-02-08 18:04:06.888
"2/8/2020 18:04:06.900",-1.051,-0.313,-1.945,2020-02-08 18:04:06.900
"2/8/2020 18:04:06.913",-0.59,0.094,-2.035,2020-02-08 18:04:06.913
"2/8/2020 18:04:06.925",0.035,0.152,-1.949,2020-02-08 18:04:06.924
"2/8/2020 18:04:06.938",0.703,-0.109,-1.898,2020-02-08 18:04:06.937
"2/8/2020 18:04:06.950",1.129,-0.242,-1.785,2020-02-08 18:04:06.950
"2/8/2020 18:04:06.963",1.363,-0.461,-1.422,2020-02-08 18:04:06.963
"2/8/2020 18:04:06.975",1.086,-0.559,-1.246,2020-02-08 18:04:06.974
"2/8/2020 18:04:06.988",0.641,-0.574,-1.102,2020-02-08 18:04:06.987
"2/8/2020 18:04:07.000",0.047,-0.242,-1.008,2020-02-08 18:04:07.000
"2/8/2020 18:04:07.013",-0.59,0.219,-0.789,2020-02-08 18:04:07.013
"2/8/2020 18:04:07.025",-1.129,0.387,-0.508,2020-02-08 18:04:07.025
"2/8/2020 18:04:07.038",-1.723,0.336,-0.27,2020-02-08 18:04:07.038
"2/8/2020 18:04:07.050",-2.004,0.207,-0.098,2020-02-08 18:04:07.049
"2/8/2020 18:04:07.063",-1.469,-0.051,0.164,2020-02-08 18:04:07.062
"2/8/2020 18:04:07.075",-0.844,-0.336,0.223,2020-02-08 18:04:07.075
"2/8/2020 18:04:07.088",-0.574,-0.477,0.117,2020-02-08 18:04:07.088
"2/8/2020 18:04:07.100",-0.199,-0.477,0.055,2020-02-08 18:04:07.099
"2/8/2020 18:04:07.113",0.23,-0.289,0.031,2020-02-08 18:04:07.112
"2/8/2020 18:04:07.125",0.52,0.043,0.066,2020-02-08 18:04:07.125
"2/8/2020 18:04:07.138",0.699,0.297,0.172,2020-02-08 18:04:07.138
"2/8/2020 18:04:07.150",0.84,0.273,0.391,2020-02-08 18:04:07.150
"2/8/2020 18:04:07.163",1.148,-0.016,0.438,2020-02-08 18:04:07.163
"2/8/2020 18:04:07.175",1.43,-0.223,0.484,2020-02-08 18:04:07.174
"2/8/2020 18:04:07.188",1.488,-0.031,0.684,2020-02-08 18:04:07.187
"2/8/2020 18:04:07.200",1.559,0.227,1.051,2020-02-08 18:04:07.200
"2/8/2020 18:04:07.213",1.535,0.277,1.43,2020-02-08 18:04:07.213
"2/8/2020 18:04:07.225",1.531,0.199,1.621,2020-02-08 18:04:07.224
"2/8/2020 18:04:07.238",1.418,0.059,1.75,2020-02-08 18:04:07.237
"2/8/2020 18:04:07.250",1.23,-0.148,1.832,2020-02-08 18:04:07.250
"2/8/2020 18:04:07.263",1.023,-0.48,1.898,2020-02-08 18:04:07.263
"2/8/2020 18:04:07.275",0.855,-0.703,1.855,2020-02-08 18:04:07.275
"2/8/2020 18:04:07.288",0.738,-0.59,1.848,2020-02-08 18:04:07.288
"2/8/2020 18:04:07.300",0.605,-0.391,1.895,2020-02-08 18:04:07.299
"2/8/2020 18:04:07.313",0.504,-0.332,1.918,2020-02-08 18:04:07.312
"2/8/2020 18:04:07.325",0.418,-0.395,1.797,2020-02-08 18:04:07.325
"2/8/2020 18:04:07.338",0.324,-0.441,1.578,2020-02-08 18:04:07.338
"2/8/2020 18:04:07.350",0.242,-0.453,1.422,2020-02-08 18:04:07.349
"2/8/2020 18:04:07.363",0.188,-0.406,1.398,2020-02-08 18:04:07.362
"2/8/2020 18:04:07.375",0.133,-0.258,1.43,2020-02-08 18:04:07.375
"2/8/2020 18:04:07.388",0.113,-0.07,1.461,2020-02-08 18:04:07.388
"2/8/2020 18:04:07.400",0.109,0.129,1.469,2020-02-08 18:04:07.400
"2/8/2020 18:04:07.413",0.117,0.211,1.43,2020-02-08 18:04:07.413
"2/8/2020 18:04:07.425",0.113,0.23,1.367,2020-02-08 18:04:07.424
"2/8/2020 18:04:07.438",0.082,0.254,1.281,2020-02-08 18:04:07.437
"2/8/2020 18:04:07.450",0.027,0.289,1.223,2020-02-08 18:04:07.450
"2/8/2020 18:04:07.463",-0.027,0.238,1.195,2020-02-08 18:04:07.463
"2/8/2020 18:04:07.475",-0.039,0.121,1.172,2020-02-08 18:04:07.474
"2/8/2020 18:04:07.488",-0.023,0.063,1.074,2020-02-08 18:04:07.487
"2/8/2020 18:04:07.500",-0.035,0.066,0.918,2020-02-08 18:04:07.500
"2/8/2020 18:04:07.513",-0.074,0.117,0.805,2020-02-08 18:04:07.513
"2/8/2020 18:04:07.525",-0.156,0.156,0.734,2020-02-08 18:04:07.525
"2/8/2020 18:04:07.538",-0.273,0.242,0.785,2020-02-08 18:04:07.538
"2/8/2020 18:04:07.550",-0.426,0.352,0.992,2020-02-08 18:04:07.549
"2/8/2020 18:04:07.563",-0.559,0.371,1.273,2020-02-08 18:04:07.562
"2/8/2020 18:04:07.575",-0.594,0.383,1.652,2020-02-08 18:04:07.575
"2/8/2020 18:04:07.588",-0.719,0.535,1.988,2020-02-08 18:04:07.588
"2/8/2020 18:04:07.600",-1.016,0.789,1.914,2020-02-08 18:04:07.599
"2/8/2020 18:04:07.613",-1.328,1.398,1.473,2020-02-08 18:04:07.612
"2/8/2020 18:04:07.625",-1.41,2.211,0.766,2020-02-08 18:04:07.625
"2/8/2020 18:04:07.638",-1.117,2.918,-0.008,2020-02-08 18:04:07.638
"2/8/2020 18:04:07.650",-0.523,3.473,-0.324,2020-02-08 18:04:07.650
"2/8/2020 18:04:07.663",0.285,3.512,-0.164,2020-02-08 18:04:07.663
"2/8/2020 18:04:07.675",1.063,3.234,0.148,2020-02-08 18:04:07.674
"2/8/2020 18:04:07.688",1.82,2.668,0.797,2020-02-08 18:04:07.687
"2/8/2020 18:04:07.700",1.848,2.063,1.422,2020-02-08 18:04:07.700
"2/8/2020 18:04:07.713",1.199,1.902,1.477,2020-02-08 18:04:07.713
"2/8/2020 18:04:07.725",0.941,2.047,1.258,2020-02-08 18:04:07.724
"2/8/2020 18:04:07.738",0.914,2.348,0.773,2020-02-08 18:04:07.737
"2/8/2020 18:04:07.750",0.797,2.516,0.219,2020-02-08 18:04:07.750
"2/8/2020 18:04:07.763",0.578,2.418,-0.254,2020-02-08 18:04:07.763
"2/8/2020 18:04:07.775",0.449,2.066,-0.574,2020-02-08 18:04:07.775
"2/8/2020 18:04:07.788",0.348,1.379,-0.746,2020-02-08 18:04:07.788
"2/8/2020 18:04:07.800",0.297,0.914,-0.789,2020-02-08 18:04:07.799
"2/8/2020 18:04:07.813",0.273,0.719,-0.934,2020-02-08 18:04:07.812
"2/8/2020 18:04:07.825",0.227,0.406,-1.012,2020-02-08 18:04:07.825
"2/8/2020 18:04:07.838",0.207,0.004,-1,2020-02-08 18:04:07.838
"2/8/2020 18:04:07.850",0.18,-0.398,-0.941,2020-02-08 18:04:07.849
"2/8/2020 18:04:07.863",0.176,-0.719,-0.816,2020-02-08 18:04:07.862
"2/8/2020 18:04:07.875",0.148,-0.918,-0.695,2020-02-08 18:04:07.875
"2/8/2020 18:04:07.888",0.047,-1.086,-0.629,2020-02-08 18:04:07.888
"2/8/2020 18:04:07.900",-0.105,-1.059,-0.613,2020-02-08 18:04:07.900
"2/8/2020 18:04:07.913",-0.324,-1.004,-0.648,2020-02-08 18:04:07.913
"2/8/2020 18:04:07.925",-0.422,-1.105,-0.625,2020-02-08 18:04:07.924
"2/8/2020 18:04:07.938",-0.387,-1.328,-0.496,2020-02-08 18:04:07.937
"2/8/2020 18:04:07.950",-0.383,-1.508,-0.324,2020-02-08 18:04:07.950
"2/8/2020 18:04:07.963",-0.578,-1.5,-0.254,2020-02-08 18:04:07.963
"2/8/2020 18:04:07.975",-0.965,-1.398,-0.285,2020-02-08 18:04:07.974
"2/8/2020 18:04:07.988",-1.434,-0.984,-0.387,2020-02-08 18:04:07.987
"2/8/2020 18:04:08.000",-1.977,-0.227,-0.539,2020-02-08 18:04:08.000
"2/8/2020 18:04:08.013",-2.426,0.82,-0.996,2020-02-08 18:04:08.013
"2/8/2020 18:04:08.025",-1.688,1.363,-1.008,2020-02-08 18:04:08.025
"2/8/2020 18:04:08.038",-0.602,0.695,-0.305,2020-02-08 18:04:08.038
"2/8/2020 18:04:08.050",-0.125,-0.602,-0.164,2020-02-08 18:04:08.049
"2/8/2020 18:04:08.063",-0.07,-1.477,-0.414,2020-02-08 18:04:08.062
"2/8/2020 18:04:08.075",0.063,-0.668,-0.859,2020-02-08 18:04:08.075
"2/8/2020 18:04:08.088",0.293,-0.438,-0.785,2020-02-08 18:04:08.088
"2/8/2020 18:04:08.100",0.5,-0.469,-0.789,2020-02-08 18:04:08.099
"2/8/2020 18:04:08.113",0.613,-0.801,-0.91,2020-02-08 18:04:08.112
"2/8/2020 18:04:08.125",0.789,-1.086,-1.191,2020-02-08 18:04:08.125
"2/8/2020 18:04:08.138",1.078,-0.543,-1.191,2020-02-08 18:04:08.138
"2/8/2020 18:04:08.150",1.09,-1.23,-0.504,2020-02-08 18:04:08.150
"2/8/2020 18:04:08.163",1.051,-2.184,-0.234,2020-02-08 18:04:08.163
"2/8/2020 18:04:08.175",1.242,-1.887,-0.715,2020-02-08 18:04:08.174
"2/8/2020 18:04:08.188",1.324,-0.566,-0.66,2020-02-08 18:04:08.187
"2/8/2020 18:04:08.200",1.25,0.125,-0.164,2020-02-08 18:04:08.200
"2/8/2020 18:04:08.213",0.98,0.035,0.254,2020-02-08 18:04:08.213
"2/8/2020 18:04:08.225",0.84,0.551,0.207,2020-02-08 18:04:08.224
"2/8/2020 18:04:08.238",0.684,0.758,-0.082,2020-02-08 18:04:08.237
"2/8/2020 18:04:08.250",0.629,0.992,-0.457,2020-02-08 18:04:08.250
"2/8/2020 18:04:08.263",0.469,1.105,-0.715,2020-02-08 18:04:08.263
"2/8/2020 18:04:08.275",0.379,0.875,-0.957,2020-02-08 18:04:08.275
"2/8/2020 18:04:08.288",0.242,0.371,-1.117,2020-02-08 18:04:08.288
"2/8/2020 18:04:08.300",0.035,0.441,-1.035,2020-02-08 18:04:08.299
"2/8/2020 18:04:08.313",0.004,0.859,-0.863,2020-02-08 18:04:08.312
"2/8/2020 18:04:08.325",0.117,1.117,-0.594,2020-02-08 18:04:08.325
"2/8/2020 18:04:08.338",0.18,1.152,-0.395,2020-02-08 18:04:08.338
"2/8/2020 18:04:08.350",0.176,1.113,-0.223,2020-02-08 18:04:08.349
"2/8/2020 18:04:08.363",0.152,1.008,-0.125,2020-02-08 18:04:08.362
"2/8/2020 18:04:08.375",0.16,0.902,0,2020-02-08 18:04:08.375
"2/8/2020 18:04:08.388",0.328,0.797,0.316,2020-02-08 18:04:08.388
"2/8/2020 18:04:08.400",0.48,0.594,0.762,2020-02-08 18:04:08.400
"2/8/2020 18:04:08.413",0.398,0.305,1.156,2020-02-08 18:04:08.413
"2/8/2020 18:04:08.425",0.145,0.059,1.418,2020-02-08 18:04:08.424
"2/8/2020 18:04:08.438",-0.023,-0.086,1.539,2020-02-08 18:04:08.437
"2/8/2020 18:04:08.450",-0.016,-0.211,1.57,2020-02-08 18:04:08.450
"2/8/2020 18:04:08.463",0.121,-0.367,1.594,2020-02-08 18:04:08.463
"2/8/2020 18:04:08.475",0.285,-0.523,1.629,2020-02-08 18:04:08.474
"2/8/2020 18:04:08.488",0.27,-0.574,1.602,2020-02-08 18:04:08.487
"2/8/2020 18:04:08.500",0.027,-0.465,1.531,2020-02-08 18:04:08.500
"2/8/2020 18:04:08.513",-0.242,-0.328,1.531,2020-02-08 18:04:08.513
"2/8/2020 18:04:08.525",-0.484,-0.203,1.723,2020-02-08 18:04:08.525
"2/8/2020 18:04:08.538",-0.699,0.012,2.059,2020-02-08 18:04:08.538
"2/8/2020 18:04:08.550",-0.914,0.211,2.27,2020-02-08 18:04:08.549
"2/8/2020 18:04:08.563",-1.102,0.223,2.262,2020-02-08 18:04:08.562
"2/8/2020 18:04:08.575",-1.262,0.055,2,2020-02-08 18:04:08.575
"2/8/2020 18:04:08.588",-1.281,-0.215,1.578,2020-02-08 18:04:08.588
"2/8/2020 18:04:08.600",-1.07,-0.398,1.129,2020-02-08 18:04:08.599
"2/8/2020 18:04:08.613",-0.848,-0.68,0.852,2020-02-08 18:04:08.612
"2/8/2020 18:04:08.625",-0.602,-1.066,0.754,2020-02-08 18:04:08.625
"2/8/2020 18:04:08.638",-0.414,-1.41,0.688,2020-02-08 18:04:08.638
"2/8/2020 18:04:08.650",-0.316,-1.625,0.578,2020-02-08 18:04:08.650
"2/8/2020 18:04:08.663",-0.301,-1.695,0.332,2020-02-08 18:04:08.663
"2/8/2020 18:04:08.675",-0.277,-1.637,0.02,2020-02-08 18:04:08.674
"2/8/2020 18:04:08.688",-0.23,-1.52,-0.172,2020-02-08 18:04:08.687
"2/8/2020 18:04:08.700",-0.141,-1.523,-0.234,2020-02-08 18:04:08.700
"2/8/2020 18:04:08.713",-0.047,-1.582,-0.266,2020-02-08 18:04:08.713
"2/8/2020 18:04:08.725",-0.098,-1.563,-0.184,2020-02-08 18:04:08.724
"2/8/2020 18:04:08.738",-0.316,-1.402,-0.156,2020-02-08 18:04:08.737
"2/8/2020 18:04:08.750",-0.445,-0.969,-0.129,2020-02-08 18:04:08.750
"2/8/2020 18:04:08.763",-0.43,-0.727,-0.016,2020-02-08 18:04:08.763
"2/8/2020 18:04:08.775",-0.336,-0.887,0.18,2020-02-08 18:04:08.775
"2/8/2020 18:04:08.788",-0.254,-1.141,0.328,2020-02-08 18:04:08.788
"2/8/2020 18:04:08.800",-0.207,-0.91,0.328,2020-02-08 18:04:08.799
"2/8/2020 18:04:08.813",-0.23,-0.363,0.254,2020-02-08 18:04:08.812
"2/8/2020 18:04:08.825",-0.125,-0.07,0.324,2020-02-08 18:04:08.825
"2/8/2020 18:04:08.838",0.078,-0.152,0.453,2020-02-08 18:04:08.838
"2/8/2020 18:04:08.850",0.129,-0.359,0.527,2020-02-08 18:04:08.849
"2/8/2020 18:04:08.863",-0.016,-0.457,0.402,2020-02-08 18:04:08.862
"2/8/2020 18:04:08.875",-0.195,-0.449,0.176,2020-02-08 18:04:08.875
"2/8/2020 18:04:08.888",-0.387,-0.676,0.043,2020-02-08 18:04:08.888
"2/8/2020 18:04:08.900",-0.668,-1.371,0.16,2020-02-08 18:04:08.900
"2/8/2020 18:04:08.913",-1.008,-2.613,0.77,2020-02-08 18:04:08.913
"2/8/2020 18:04:08.925",-1.324,-3.406,1.105,2020-02-08 18:04:08.924
"2/8/2020 18:04:08.938",-1.996,-2.828,1.078,2020-02-08 18:04:08.937
"2/8/2020 18:04:08.950",-3.168,-1.805,0.82,2020-02-08 18:04:08.950
"2/8/2020 18:04:08.963",-5.645,-0.805,0.398,2020-02-08 18:04:08.963
"2/8/2020 18:04:08.975",-4.246,0.629,0.363,2020-02-08 18:04:08.974
"2/8/2020 18:04:08.988",-1.992,1.035,0.246,2020-02-08 18:04:08.987
"2/8/2020 18:04:09.000",-0.652,1.047,0.094,2020-02-08 18:04:09.000
"2/8/2020 18:04:09.013",-0.387,1.457,-0.125,2020-02-08 18:04:09.013
"2/8/2020 18:04:09.025",-0.816,2.094,-0.129,2020-02-08 18:04:09.025
"2/8/2020 18:04:09.038",-0.73,2.285,0.34,2020-02-08 18:04:09.038
"2/8/2020 18:04:09.050",-0.629,1.57,0.547,2020-02-08 18:04:09.049
"2/8/2020 18:04:09.063",-0.617,0.906,0.18,2020-02-08 18:04:09.062
"2/8/2020 18:04:09.075",-0.625,0.887,-0.246,2020-02-08 18:04:09.075
"2/8/2020 18:04:09.088",-0.641,0.895,-0.375,2020-02-08 18:04:09.088
"2/8/2020 18:04:09.100",-0.699,0.832,-0.367,2020-02-08 18:04:09.099
"2/8/2020 18:04:09.113",-0.738,0.848,-0.254,2020-02-08 18:04:09.112
"2/8/2020 18:04:09.125",-0.754,0.949,-0.188,2020-02-08 18:04:09.125
"2/8/2020 18:04:09.138",-0.801,1.195,-0.152,2020-02-08 18:04:09.138
"2/8/2020 18:04:09.150",-0.879,1.574,-0.098,2020-02-08 18:04:09.150
"2/8/2020 18:04:09.163",-0.898,1.855,-0.074,2020-02-08 18:04:09.163
"2/8/2020 18:04:09.175",-0.824,2.121,-0.125,2020-02-08 18:04:09.174
"2/8/2020 18:04:09.188",-0.754,1.926,-0.242,2020-02-08 18:04:09.187
"2/8/2020 18:04:09.200",-0.762,1.82,-0.551,2020-02-08 18:04:09.200
"2/8/2020 18:04:09.213",-0.684,1.82,-0.742,2020-02-08 18:04:09.213
"2/8/2020 18:04:09.225",-0.527,1.434,-0.781,2020-02-08 18:04:09.224
"2/8/2020 18:04:09.238",-0.344,1.082,-0.871,2020-02-08 18:04:09.237
"2/8/2020 18:04:09.250",-0.203,0.973,-0.965,2020-02-08 18:04:09.250
"2/8/2020 18:04:09.263",-0.043,0.859,-0.969,2020-02-08 18:04:09.263
"2/8/2020 18:04:09.275",0.082,0.719,-0.848,2020-02-08 18:04:09.275
"2/8/2020 18:04:09.288",0.082,0.563,-0.672,2020-02-08 18:04:09.288
"2/8/2020 18:04:09.300",0.078,0.477,-0.617,2020-02-08 18:04:09.299
"2/8/2020 18:04:09.313",0.191,0.551,-0.672,2020-02-08 18:04:09.312
"2/8/2020 18:04:09.325",0.551,0.824,-0.805,2020-02-08 18:04:09.325
"2/8/2020 18:04:09.338",0.953,1.117,-0.926,2020-02-08 18:04:09.338
"2/8/2020 18:04:09.350",1.238,1.094,-0.84,2020-02-08 18:04:09.349
"2/8/2020 18:04:09.363",1.184,0.879,-0.734,2020-02-08 18:04:09.362
"2/8/2020 18:04:09.375",0.922,0.867,-0.77,2020-02-08 18:04:09.375
"2/8/2020 18:04:09.388",0.789,1.121,-0.77,2020-02-08 18:04:09.388
"2/8/2020 18:04:09.400",0.785,1.477,-0.75,2020-02-08 18:04:09.400
"2/8/2020 18:04:09.413",0.863,1.723,-0.793,2020-02-08 18:04:09.413
"2/8/2020 18:04:09.425",0.941,1.719,-0.785,2020-02-08 18:04:09.424
"2/8/2020 18:04:09.438",0.863,1.535,-0.82,2020-02-08 18:04:09.437
"2/8/2020 18:04:09.450",0.691,1.344,-0.895,2020-02-08 18:04:09.450
"2/8/2020 18:04:09.463",0.629,1.418,-0.91,2020-02-08 18:04:09.463
"2/8/2020 18:04:09.475",0.66,1.773,-0.891,2020-02-08 18:04:09.474
"2/8/2020 18:04:09.488",0.699,2.09,-0.93,2020-02-08 18:04:09.487
"2/8/2020 18:04:09.500",0.719,2.285,-0.98,2020-02-08 18:04:09.500
"2/8/2020 18:04:09.513",0.742,2.297,-1.066,2020-02-08 18:04:09.513
"2/8/2020 18:04:09.525",0.66,2.156,-1.199,2020-02-08 18:04:09.525
"2/8/2020 18:04:09.538",0.547,2.184,-1.258,2020-02-08 18:04:09.538
"2/8/2020 18:04:09.550",0.488,2.465,-1.309,2020-02-08 18:04:09.549
"2/8/2020 18:04:09.563",0.402,2.559,-1.395,2020-02-08 18:04:09.562
"2/8/2020 18:04:09.575",0.281,2.184,-1.477,2020-02-08 18:04:09.575
"2/8/2020 18:04:09.588",0.074,1.73,-1.414,2020-02-08 18:04:09.588
"2/8/2020 18:04:09.600",-0.258,1.613,-1.305,2020-02-08 18:04:09.599
"2/8/2020 18:04:09.613",-0.664,1.523,-1.125,2020-02-08 18:04:09.612
"2/8/2020 18:04:09.625",-0.875,1.234,-0.805,2020-02-08 18:04:09.625
"2/8/2020 18:04:09.638",-1.137,0.621,-0.324,2020-02-08 18:04:09.638
"2/8/2020 18:04:09.650",-1.504,0.07,0.246,2020-02-08 18:04:09.650
"2/8/2020 18:04:09.663",-2.055,-0.441,0.77,2020-02-08 18:04:09.663
"2/8/2020 18:04:09.675",-2.656,-1.066,1.176,2020-02-08 18:04:09.674
"2/8/2020 18:04:09.688",-2.922,-1.52,1.336,2020-02-08 18:04:09.687
"2/8/2020 18:04:09.700",-2.844,-1.648,1.227,2020-02-08 18:04:09.700
"2/8/2020 18:04:09.713",-2.609,-1.699,0.961,2020-02-08 18:04:09.713
"2/8/2020 18:04:09.725",-2.344,-1.68,0.438,2020-02-08 18:04:09.724
"2/8/2020 18:04:09.738",-2.168,-1.352,0.18,2020-02-08 18:04:09.737
"2/8/2020 18:04:09.750",-2.109,-0.887,-0.133,2020-02-08 18:04:09.750
"2/8/2020 18:04:09.763",-2.141,0.262,-0.289,2020-02-08 18:04:09.763
"2/8/2020 18:04:09.775",-2.898,1.664,-0.176,2020-02-08 18:04:09.775
"2/8/2020 18:04:09.788",-2.961,2.094,0.383,2020-02-08 18:04:09.788
"2/8/2020 18:04:09.800",-1.871,0.965,1.363,2020-02-08 18:04:09.799
"2/8/2020 18:04:09.813",-1.684,0.113,1.516,2020-02-08 18:04:09.812
"2/8/2020 18:04:09.825",-1.457,0.164,1.246,2020-02-08 18:04:09.825
"2/8/2020 18:04:09.838",-1.156,0.324,0.988,2020-02-08 18:04:09.838
"2/8/2020 18:04:09.850",-0.949,0.32,0.883,2020-02-08 18:04:09.849
"2/8/2020 18:04:09.863",-0.707,0.164,0.906,2020-02-08 18:04:09.862
"2/8/2020 18:04:09.875",-0.469,0.008,0.938,2020-02-08 18:04:09.875
"2/8/2020 18:04:09.888",-0.246,0.078,0.883,2020-02-08 18:04:09.888
"2/8/2020 18:04:09.900",0.02,0.164,0.793,2020-02-08 18:04:09.900
"2/8/2020 18:04:09.913",0.191,0.254,0.699,2020-02-08 18:04:09.913
"2/8/2020 18:04:09.925",0.277,0.328,0.664,2020-02-08 18:04:09.924
"2/8/2020 18:04:09.938",0.32,0.41,0.625,2020-02-08 18:04:09.937
"2/8/2020 18:04:09.950",0.434,0.453,0.582,2020-02-08 18:04:09.950
"2/8/2020 18:04:09.963",0.543,0.48,0.523,2020-02-08 18:04:09.963
"2/8/2020 18:04:09.975",0.621,0.625,0.473,2020-02-08 18:04:09.974
"2/8/2020 18:04:09.988",0.633,0.707,0.445,2020-02-08 18:04:09.987
"2/8/2020 18:04:10.000",0.555,0.754,0.363,2020-02-08 18:04:10.000
"2/8/2020 18:04:10.013",0.492,0.797,0.207,2020-02-08 18:04:10.013
"2/8/2020 18:04:10.025",0.402,0.777,0.066,2020-02-08 18:04:10.025
"2/8/2020 18:04:10.038",0.352,0.766,-0.047,2020-02-08 18:04:10.038
"2/8/2020 18:04:10.050",0.285,0.75,-0.098,2020-02-08 18:04:10.049
"2/8/2020 18:04:10.063",0.234,0.613,-0.129,2020-02-08 18:04:10.062
"2/8/2020 18:04:10.075",0.141,0.598,-0.223,2020-02-08 18:04:10.075
"2/8/2020 18:04:10.088",0.109,0.785,-0.332,2020-02-08 18:04:10.088
"2/8/2020 18:04:10.100",0.148,1.055,-0.438,2020-02-08 18:04:10.099
"2/8/2020 18:04:10.113",0.25,1.371,-0.555,2020-02-08 18:04:10.112
"2/8/2020 18:04:10.125",0.398,1.578,-0.602,2020-02-08 18:04:10.125
"2/8/2020 18:04:10.138",0.488,1.574,-0.566,2020-02-08 18:04:10.138
"2/8/2020 18:04:10.150",0.484,1.297,-0.363,2020-02-08 18:04:10.150
"2/8/2020 18:04:10.163",0.379,0.895,-0.102,2020-02-08 18:04:10.163
"2/8/2020 18:04:10.175",0.258,0.613,0.07,2020-02-08 18:04:10.174
"2/8/2020 18:04:10.188",0.211,0.527,0.148,2020-02-08 18:04:10.187
"2/8/2020 18:04:10.200",0.266,0.594,0.152,2020-02-08 18:04:10.200
"2/8/2020 18:04:10.213",0.336,0.715,0.039,2020-02-08 18:04:10.213
"2/8/2020 18:04:10.225",0.355,0.844,-0.133,2020-02-08 18:04:10.224
"2/8/2020 18:04:10.238",0.352,0.996,-0.164,2020-02-08 18:04:10.237
"2/8/2020 18:04:10.250",0.32,1.063,-0.105,2020-02-08 18:04:10.250
"2/8/2020 18:04:10.263",0.371,1.09,-0.113,2020-02-08 18:04:10.263
"2/8/2020 18:04:10.275",0.504,1.18,-0.105,2020-02-08 18:04:10.275
"2/8/2020 18:04:10.288",0.637,1.277,-0.137,2020-02-08 18:04:10.288
"2/8/2020 18:04:10.300",0.719,1.273,-0.172,2020-02-08 18:04:10.299
"2/8/2020 18:04:10.313",0.773,1.164,-0.164,2020-02-08 18:04:10.312
"2/8/2020 18:04:10.325",0.824,1.016,-0.074,2020-02-08 18:04:10.325
"2/8/2020 18:04:10.338",0.828,0.824,0.09,2020-02-08 18:04:10.338
"2/8/2020 18:04:10.350",0.77,0.566,0.219,2020-02-08 18:04:10.349
"2/8/2020 18:04:10.363",0.641,0.164,0.348,2020-02-08 18:04:10.362
"2/8/2020 18:04:10.375",0.586,-0.258,0.559,2020-02-08 18:04:10.375
"2/8/2020 18:04:10.388",0.535,-0.711,0.801,2020-02-08 18:04:10.388
"2/8/2020 18:04:10.400",0.344,-1.164,1.043,2020-02-08 18:04:10.400
"2/8/2020 18:04:10.413",0.141,-1.352,1.195,2020-02-08 18:04:10.413
"2/8/2020 18:04:10.425",0.012,-1.359,1.227,2020-02-08 18:04:10.424
"2/8/2020 18:04:10.438",-0.047,-1.344,1.191,2020-02-08 18:04:10.437
"2/8/2020 18:04:10.450",-0.102,-1.164,1.098,2020-02-08 18:04:10.450
"2/8/2020 18:04:10.463",-0.09,-0.93,1.043,2020-02-08 18:04:10.463
"2/8/2020 18:04:10.475",-0.031,-0.793,1.094,2020-02-08 18:04:10.474
"2/8/2020 18:04:10.488",-0.012,-0.801,1.133,2020-02-08 18:04:10.487
"2/8/2020 18:04:10.500",-0.043,-0.926,1.098,2020-02-08 18:04:10.500
"2/8/2020 18:04:10.513",-0.113,-1.09,1.039,2020-02-08 18:04:10.513
"2/8/2020 18:04:10.525",-0.234,-1.191,0.926,2020-02-08 18:04:10.525
"2/8/2020 18:04:10.538",-0.289,-1.234,0.84,2020-02-08 18:04:10.538
"2/8/2020 18:04:10.550",-0.281,-1.242,0.746,2020-02-08 18:04:10.549
"2/8/2020 18:04:10.563",-0.27,-1.176,0.648,2020-02-08 18:04:10.562
"2/8/2020 18:04:10.575",-0.273,-1.102,0.543,2020-02-08 18:04:10.575
"2/8/2020 18:04:10.588",-0.336,-1.078,0.492,2020-02-08 18:04:10.588
"2/8/2020 18:04:10.600",-0.414,-1.066,0.434,2020-02-08 18:04:10.599
"2/8/2020 18:04:10.613",-0.508,-1.078,0.355,2020-02-08 18:04:10.612
"2/8/2020 18:04:10.625",-0.637,-1.094,0.336,2020-02-08 18:04:10.625
"2/8/2020 18:04:10.638",-0.844,-1.016,0.641,2020-02-08 18:04:10.638
"2/8/2020 18:04:10.650",-1.289,-0.563,1.059,2020-02-08 18:04:10.650
"2/8/2020 18:04:10.663",-2.184,0.09,1.617,2020-02-08 18:04:10.663
"2/8/2020 18:04:10.675",-3.148,0.703,2.262,2020-02-08 18:04:10.674
"2/8/2020 18:04:10.688",-2.57,0.945,2.426,2020-02-08 18:04:10.687
"2/8/2020 18:04:10.700",-1.973,1.531,1.883,2020-02-08 18:04:10.700
"2/8/2020 18:04:10.713",-1.477,2.5,1.398,2020-02-08 18:04:10.713
"2/8/2020 18:04:10.725",-1.125,2.719,1.336,2020-02-08 18:04:10.724
"2/8/2020 18:04:10.738",-1.031,2.219,1.516,2020-02-08 18:04:10.737
"2/8/2020 18:04:10.750",-0.965,1.934,1.621,2020-02-08 18:04:10.750
"2/8/2020 18:04:10.763",-0.848,1.809,1.434,2020-02-08 18:04:10.763
"2/8/2020 18:04:10.775",-0.676,1.566,1.109,2020-02-08 18:04:10.775
"2/8/2020 18:04:10.788",-0.539,1.133,0.992,2020-02-08 18:04:10.788
"2/8/2020 18:04:10.800",-0.434,0.457,1.105,2020-02-08 18:04:10.799
"2/8/2020 18:04:10.813",-0.438,-0.172,1.348,2020-02-08 18:04:10.812
"2/8/2020 18:04:10.825",-0.559,-0.652,1.559,2020-02-08 18:04:10.825
"2/8/2020 18:04:10.838",-0.742,-0.984,1.73,2020-02-08 18:04:10.838
"2/8/2020 18:04:10.850",-0.918,-1.371,1.828,2020-02-08 18:04:10.849
"2/8/2020 18:04:10.863",-1.027,-1.82,1.91,2020-02-08 18:04:10.862
"2/8/2020 18:04:10.875",-0.984,-2.262,1.949,2020-02-08 18:04:10.875
"2/8/2020 18:04:10.888",-1.012,-2.918,2.031,2020-02-08 18:04:10.888
"2/8/2020 18:04:10.900",-0.945,-3.352,1.965,2020-02-08 18:04:10.900
"2/8/2020 18:04:10.913",-0.773,-3.5,1.758,2020-02-08 18:04:10.913
"2/8/2020 18:04:10.925",-0.555,-3.219,1.391,2020-02-08 18:04:10.924
"2/8/2020 18:04:10.938",-0.219,-2.547,0.953,2020-02-08 18:04:10.937
"2/8/2020 18:04:10.950",0.43,-1.859,0.781,2020-02-08 18:04:10.950
"2/8/2020 18:04:10.963",1.238,-1.512,1.113,2020-02-08 18:04:10.963
"2/8/2020 18:04:10.975",1.363,-1.633,1.48,2020-02-08 18:04:10.974
"2/8/2020 18:04:10.988",0.539,-1.621,1.051,2020-02-08 18:04:10.987
"2/8/2020 18:04:11.000",-0.34,-0.805,0.645,2020-02-08 18:04:11.000
"2/8/2020 18:04:11.013",-0.82,-0.395,0.777,2020-02-08 18:04:11.013
"2/8/2020 18:04:11.025",-1.621,0.047,0.855,2020-02-08 18:04:11.025
"2/8/2020 18:04:11.038",-2.602,0.703,0.879,2020-02-08 18:04:11.038
"2/8/2020 18:04:11.050",-3.07,1.102,1.078,2020-02-08 18:04:11.049
"2/8/2020 18:04:11.063",-3.223,1.547,1.223,2020-02-08 18:04:11.062
"2/8/2020 18:04:11.075",-3.234,1.75,1.199,2020-02-08 18:04:11.075
"2/8/2020 18:04:11.088",-3.117,2,0.828,2020-02-08 18:04:11.088
"2/8/2020 18:04:11.100",-2.953,2.234,0.246,2020-02-08 18:04:11.099
"2/8/2020 18:04:11.113",-2.867,2.316,-0.371,2020-02-08 18:04:11.112
"2/8/2020 18:04:11.125",-2.809,2.09,-0.945,2020-02-08 18:04:11.125
"2/8/2020 18:04:11.138",-2.598,1.848,-1.504,2020-02-08 18:04:11.138
"2/8/2020 18:04:11.150",-2.297,1.574,-2.016,2020-02-08 18:04:11.150
"2/8/2020 18:04:11.163",-1.844,1.199,-2.32,2020-02-08 18:04:11.163
"2/8/2020 18:04:11.175",-1.344,0.707,-2.449,2020-02-08 18:04:11.174
"2/8/2020 18:04:11.188",-0.883,0.258,-2.422,2020-02-08 18:04:11.187
"2/8/2020 18:04:11.200",-0.523,-0.094,-2.203,2020-02-08 18:04:11.200
"2/8/2020 18:04:11.213",-0.289,-0.441,-2.02,2020-02-08 18:04:11.213
"2/8/2020 18:04:11.225",-0.066,-0.547,-1.859,2020-02-08 18:04:11.224
"2/8/2020 18:04:11.238",0.152,-0.148,-1.813,2020-02-08 18:04:11.237
"2/8/2020 18:04:11.250",0.063,0.246,-1.773,2020-02-08 18:04:11.250
"2/8/2020 18:04:11.263",-0.348,0.215,-1.547,2020-02-08 18:04:11.263
"2/8/2020 18:04:11.275",-0.637,-0.438,-1.348,2020-02-08 18:04:11.275
"2/8/2020 18:04:11.288",-0.621,-1.109,-1.023,2020-02-08 18:04:11.288
"2/8/2020 18:04:11.300",-0.5,-1.805,-0.668,2020-02-08 18:04:11.299
"2/8/2020 18:04:11.313",-0.395,-2.336,-0.465,2020-02-08 18:04:11.312
"2/8/2020 18:04:11.325",-0.273,-2.5,-0.34,2020-02-08 18:04:11.325
"2/8/2020 18:04:11.338",-0.176,-2.285,-0.34,2020-02-08 18:04:11.338
"2/8/2020 18:04:11.350",-0.051,-2.004,-0.641,2020-02-08 18:04:11.349
"2/8/2020 18:04:11.363",0.211,-1.977,-1.031,2020-02-08 18:04:11.362
"2/8/2020 18:04:11.375",0.492,-2.547,-1.305,2020-02-08 18:04:11.375
"2/8/2020 18:04:11.388",0.43,-3.078,-1.359,2020-02-08 18:04:11.388
"2/8/2020 18:04:11.400",0.27,-2.957,-1.355,2020-02-08 18:04:11.400
"2/8/2020 18:04:11.413",0.164,-2.406,-1.316,2020-02-08 18:04:11.413
"2/8/2020 18:04:11.425",0.027,-1.938,-1.336,2020-02-08 18:04:11.424
"2/8/2020 18:04:11.438",0.023,-1.52,-1.305,2020-02-08 18:04:11.437
"2/8/2020 18:04:11.450",-0.02,-1.172,-1.059,2020-02-08 18:04:11.450
"2/8/2020 18:04:11.463",-0.004,-0.75,-0.695,2020-02-08 18:04:11.463
"2/8/2020 18:04:11.475",-0.035,-0.469,-0.297,2020-02-08 18:04:11.474
"2/8/2020 18:04:11.488",-0.012,-0.309,0.063,2020-02-08 18:04:11.487
"2/8/2020 18:04:11.500",-0.008,-0.23,0.277,2020-02-08 18:04:11.500
"2/8/2020 18:04:11.513",0.023,-0.113,0.586,2020-02-08 18:04:11.513
"2/8/2020 18:04:11.525",0.086,-0.066,0.902,2020-02-08 18:04:11.525
"2/8/2020 18:04:11.538",0.137,-0.129,1.113,2020-02-08 18:04:11.538
"2/8/2020 18:04:11.550",0.145,-0.305,1.043,2020-02-08 18:04:11.549
"2/8/2020 18:04:11.563",0.074,-0.559,1.012,2020-02-08 18:04:11.562
"2/8/2020 18:04:11.575",-0.012,-0.664,1.078,2020-02-08 18:04:11.575
"2/8/2020 18:04:11.588",-0.176,-0.602,1.184,2020-02-08 18:04:11.588
"2/8/2020 18:04:11.600",-0.367,-0.441,1.289,2020-02-08 18:04:11.599
"2/8/2020 18:04:11.613",-0.605,-0.184,1.555,2020-02-08 18:04:11.612
"2/8/2020 18:04:11.625",-0.695,-0.059,1.895,2020-02-08 18:04:11.625
"2/8/2020 18:04:11.638",-0.652,-0.141,2.121,2020-02-08 18:04:11.638
"2/8/2020 18:04:11.650",-0.621,-0.301,2.16,2020-02-08 18:04:11.650
"2/8/2020 18:04:11.663",-0.613,-0.371,2.18,2020-02-08 18:04:11.663
"2/8/2020 18:04:11.675",-0.707,-0.332,2.41,2020-02-08 18:04:11.674
"2/8/2020 18:04:11.688",-0.738,-0.363,2.641,2020-02-08 18:04:11.687
"2/8/2020 18:04:11.700",-0.625,-0.441,2.797,2020-02-08 18:04:11.700
"2/8/2020 18:04:11.713",-0.48,-0.566,2.813,2020-02-08 18:04:11.713
"2/8/2020 18:04:11.725",-0.328,-0.766,2.727,2020-02-08 18:04:11.724
"2/8/2020 18:04:11.738",-0.203,-0.871,2.645,2020-02-08 18:04:11.737
"2/8/2020 18:04:11.750",-0.094,-0.895,2.586,2020-02-08 18:04:11.750
"2/8/2020 18:04:11.763",-0.027,-0.898,2.477,2020-02-08 18:04:11.763
"2/8/2020 18:04:11.775",0.082,-0.895,2.25,2020-02-08 18:04:11.775
"2/8/2020 18:04:11.788",0.23,-0.875,1.938,2020-02-08 18:04:11.788
"2/8/2020 18:04:11.800",0.301,-0.84,1.676,2020-02-08 18:04:11.799
"2/8/2020 18:04:11.813",0.258,-0.836,1.539,2020-02-08 18:04:11.812
"2/8/2020 18:04:11.825",0.23,-0.855,1.48,2020-02-08 18:04:11.825
"2/8/2020 18:04:11.838",0.219,-0.871,1.453,2020-02-08 18:04:11.838
"2/8/2020 18:04:11.850",0.25,-0.867,1.375,2020-02-08 18:04:11.849
"2/8/2020 18:04:11.863",0.277,-0.84,1.27,2020-02-08 18:04:11.862
"2/8/2020 18:04:11.875",0.262,-0.785,1.195,2020-02-08 18:04:11.875
"2/8/2020 18:04:11.888",0.25,-0.738,1.156,2020-02-08 18:04:11.888
"2/8/2020 18:04:11.900",0.266,-0.695,1.172,2020-02-08 18:04:11.900
"2/8/2020 18:04:11.913",0.324,-0.594,1.238,2020-02-08 18:04:11.913
"2/8/2020 18:04:11.925",0.379,-0.477,1.355,2020-02-08 18:04:11.924
"2/8/2020 18:04:11.938",0.41,-0.395,1.457,2020-02-08 18:04:11.937
"2/8/2020 18:04:11.950",0.453,-0.313,1.5,2020-02-08 18:04:11.950
"2/8/2020 18:04:11.963",0.504,-0.219,1.516,2020-02-08 18:04:11.963
"2/8/2020 18:04:11.975",0.551,-0.094,1.605,2020-02-08 18:04:11.974
"2/8/2020 18:04:11.988",0.578,0.09,1.758,2020-02-08 18:04:11.987
"2/8/2020 18:04:12.000",0.574,0.223,1.945,2020-02-08 18:04:12.000
"2/8/2020 18:04:12.013",0.578,0.285,2.102,2020-02-08 18:04:12.013
"2/8/2020 18:04:12.025",0.582,0.371,2.176,2020-02-08 18:04:12.025
"2/8/2020 18:04:12.038",0.566,0.48,2.211,2020-02-08 18:04:12.038
"2/8/2020 18:04:12.050",0.539,0.598,2.281,2020-02-08 18:04:12.049
"2/8/2020 18:04:12.063",0.523,0.688,2.371,2020-02-08 18:04:12.062
"2/8/2020 18:04:12.075",0.512,0.789,2.449,2020-02-08 18:04:12.075
"2/8/2020 18:04:12.088",0.469,0.844,2.504,2020-02-08 18:04:12.088
"2/8/2020 18:04:12.100",0.438,0.891,2.504,2020-02-08 18:04:12.099
"2/8/2020 18:04:12.113",0.402,0.945,2.488,2020-02-08 18:04:12.112
"2/8/2020 18:04:12.125",0.363,1.008,2.488,2020-02-08 18:04:12.125
"2/8/2020 18:04:12.138",0.332,1.082,2.508,2020-02-08 18:04:12.138
"2/8/2020 18:04:12.150",0.281,1.16,2.539,2020-02-08 18:04:12.150
"2/8/2020 18:04:12.163",0.191,1.242,2.582,2020-02-08 18:04:12.163
"2/8/2020 18:04:12.175",0.09,1.297,2.59,2020-02-08 18:04:12.174
"2/8/2020 18:04:12.188",0,1.328,2.574,2020-02-08 18:04:12.187
"2/8/2020 18:04:12.200",-0.094,1.324,2.543,2020-02-08 18:04:12.200
"2/8/2020 18:04:12.213",-0.152,1.336,2.484,2020-02-08 18:04:12.213
"2/8/2020 18:04:12.225",-0.203,1.316,2.398,2020-02-08 18:04:12.224
"2/8/2020 18:04:12.238",-0.25,1.238,2.285,2020-02-08 18:04:12.237
"2/8/2020 18:04:12.250",-0.289,1.121,2.184,2020-02-08 18:04:12.250
"2/8/2020 18:04:12.263",-0.297,1.031,2.063,2020-02-08 18:04:12.263
"2/8/2020 18:04:12.275",-0.285,0.961,1.941,2020-02-08 18:04:12.275
"2/8/2020 18:04:12.288",-0.23,0.879,1.84,2020-02-08 18:04:12.288
"2/8/2020 18:04:12.300",-0.16,0.852,1.758,2020-02-08 18:04:12.299
"2/8/2020 18:04:12.313",-0.07,0.883,1.699,2020-02-08 18:04:12.312
"2/8/2020 18:04:12.325",0.016,0.914,1.66,2020-02-08 18:04:12.325
"2/8/2020 18:04:12.338",0.09,0.902,1.633,2020-02-08 18:04:12.338
"2/8/2020 18:04:12.350",0.141,0.898,1.617,2020-02-08 18:04:12.349
"2/8/2020 18:04:12.363",0.16,0.934,1.598,2020-02-08 18:04:12.362
"2/8/2020 18:04:12.375",0.207,0.969,1.586,2020-02-08 18:04:12.375
"2/8/2020 18:04:12.388",0.246,0.98,1.621,2020-02-08 18:04:12.388
"2/8/2020 18:04:12.400",0.238,0.977,1.676,2020-02-08 18:04:12.400
"2/8/2020 18:04:12.413",0.223,0.957,1.699,2020-02-08 18:04:12.413
"2/8/2020 18:04:12.425",0.191,0.914,1.656,2020-02-08 18:04:12.424
"2/8/2020 18:04:12.438",0.195,0.863,1.574,2020-02-08 18:04:12.437
"2/8/2020 18:04:12.450",0.227,0.828,1.543,2020-02-08 18:04:12.450
"2/8/2020 18:04:12.463",0.246,0.82,1.582,2020-02-08 18:04:12.463
"2/8/2020 18:04:12.475",0.258,0.816,1.629,2020-02-08 18:04:12.474
"2/8/2020 18:04:12.488",0.27,0.773,1.66,2020-02-08 18:04:12.487
"2/8/2020 18:04:12.500",0.27,0.723,1.66,2020-02-08 18:04:12.500
"2/8/2020 18:04:12.513",0.277,0.672,1.621,2020-02-08 18:04:12.513
"2/8/2020 18:04:12.525",0.258,0.617,1.539,2020-02-08 18:04:12.525
"2/8/2020 18:04:12.538",0.266,0.547,1.445,2020-02-08 18:04:12.538
"2/8/2020 18:04:12.550",0.293,0.477,1.383,2020-02-08 18:04:12.549
"2/8/2020 18:04:12.563",0.316,0.418,1.371,2020-02-08 18:04:12.562
"2/8/2020 18:04:12.575",0.316,0.422,1.43,2020-02-08 18:04:12.575
"2/8/2020 18:04:12.588",0.254,0.469,1.508,2020-02-08 18:04:12.588
"2/8/2020 18:04:12.600",0.176,0.496,1.531,2020-02-08 18:04:12.599
"2/8/2020 18:04:12.613",0.102,0.469,1.48,2020-02-08 18:04:12.612
"2/8/2020 18:04:12.625",0.008,0.402,1.379,2020-02-08 18:04:12.625
"2/8/2020 18:04:12.638",-0.098,0.281,1.262,2020-02-08 18:04:12.638
"2/8/2020 18:04:12.650",-0.18,0.145,1.207,2020-02-08 18:04:12.650
"2/8/2020 18:04:12.663",-0.262,0.109,1.277,2020-02-08 18:04:12.663
"2/8/2020 18:04:12.675",-0.363,0.145,1.402,2020-02-08 18:04:12.674
"2/8/2020 18:04:12.688",-0.438,0.176,1.445,2020-02-08 18:04:12.687
"2/8/2020 18:04:12.700",-0.48,0.156,1.379,2020-02-08 18:04:12.700
"2/8/2020 18:04:12.713",-0.531,0.082,1.273,2020-02-08 18:04:12.713
"2/8/2020 18:04:12.725",-0.566,-0.004,1.168,2020-02-08 18:04:12.724
"2/8/2020 18:04:12.738",-0.59,-0.086,1.105,2020-02-08 18:04:12.737
"2/8/2020 18:04:12.750",-0.605,-0.164,1.066,2020-02-08 18:04:12.750
"2/8/2020 18:04:12.763",-0.59,-0.199,1.047,2020-02-08 18:04:12.763
"2/8/2020 18:04:12.775",-0.598,-0.227,1.012,2020-02-08 18:04:12.775
"2/8/2020 18:04:12.788",-0.613,-0.281,0.969,2020-02-08 18:04:12.788
"2/8/2020 18:04:12.800",-0.637,-0.363,0.938,2020-02-08 18:04:12.799
"2/8/2020 18:04:12.813",-0.68,-0.441,0.898,2020-02-08 18:04:12.812
"2/8/2020 18:04:12.825",-0.719,-0.496,0.824,2020-02-08 18:04:12.825
"2/8/2020 18:04:12.838",-0.738,-0.527,0.758,2020-02-08 18:04:12.838
"2/8/2020 18:04:12.850",-0.75,-0.566,0.73,2020-02-08 18:04:12.849
"2/8/2020 18:04:12.863",-0.73,-0.633,0.738,2020-02-08 18:04:12.862
"2/8/2020 18:04:12.875",-0.691,-0.691,0.766,2020-02-08 18:04:12.875
"2/8/2020 18:04:12.888",-0.648,-0.762,0.832,2020-02-08 18:04:12.888
"2/8/2020 18:04:12.900",-0.625,-0.797,0.891,2020-02-08 18:04:12.900
"2/8/2020 18:04:12.913",-0.633,-0.805,0.918,2020-02-08 18:04:12.913
"2/8/2020 18:04:12.925",-0.633,-0.813,0.949,2020-02-08 18:04:12.924
"2/8/2020 18:04:12.938",-0.633,-0.797,0.984,2020-02-08 18:04:12.937
"2/8/2020 18:04:12.950",-0.633,-0.758,1.066,2020-02-08 18:04:12.950
"2/8/2020 18:04:12.963",-0.672,-0.688,1.293,2020-02-08 18:04:12.963
"2/8/2020 18:04:12.975",-0.762,-0.598,1.633,2020-02-08 18:04:12.974
"2/8/2020 18:04:12.988",-0.844,-0.492,1.887,2020-02-08 18:04:12.987
"2/8/2020 18:04:13.000",-0.848,-0.266,2.047,2020-02-08 18:04:13.000
"2/8/2020 18:04:13.013",-0.906,-0.133,2.18,2020-02-08 18:04:13.013
"2/8/2020 18:04:13.025",-1.105,-0.32,2.172,2020-02-08 18:04:13.025
"2/8/2020 18:04:13.038",-1.289,-0.453,1.891,2020-02-08 18:04:13.038
"2/8/2020 18:04:13.050",-1.383,-0.574,1.406,2020-02-08 18:04:13.049
"2/8/2020 18:04:13.063",-1.355,-0.766,0.914,2020-02-08 18:04:13.062
"2/8/2020 18:04:13.075",-1.305,-0.988,0.449,2020-02-08 18:04:13.075
"2/8/2020 18:04:13.088",-1.355,-1.211,-0.07,2020-02-08 18:04:13.088
"2/8/2020 18:04:13.100",-1.492,-1.266,-0.52,2020-02-08 18:04:13.099
"2/8/2020 18:04:13.113",-1.547,-1.262,-0.949,2020-02-08 18:04:13.112
"2/8/2020 18:04:13.125",-1.418,-1.359,-1.352,2020-02-08 18:04:13.125
"2/8/2020 18:04:13.138",-1.039,-1.613,-1.641,2020-02-08 18:04:13.138
"2/8/2020 18:04:13.150",-0.32,-1.852,-1.719,2020-02-08 18:04:13.150
"2/8/2020 18:04:13.163",0.523,-1.996,-1.434,2020-02-08 18:04:13.163
"2/8/2020 18:04:13.175",1.02,-2.441,-0.699,2020-02-08 18:04:13.174
"2/8/2020 18:04:13.188",0.832,-2.926,0.207,2020-02-08 18:04:13.187
"2/8/2020 18:04:13.200",0.176,-3.262,0.664,2020-02-08 18:04:13.200
"2/8/2020 18:04:13.213",-0.656,-3.566,0.605,2020-02-08 18:04:13.213
"2/8/2020 18:04:13.225",-0.59,-3.145,0.355,2020-02-08 18:04:13.224
"2/8/2020 18:04:13.238",0.668,-2.215,0.305,2020-02-08 18:04:13.237
"2/8/2020 18:04:13.250",1.871,-1.555,0.547,2020-02-08 18:04:13.250
"2/8/2020 18:04:13.263",2.219,-1.188,0.895,2020-02-08 18:04:13.263
"2/8/2020 18:04:13.275",1.672,-1.02,0.594,2020-02-08 18:04:13.275
"2/8/2020 18:04:13.288",1.234,-0.563,0.031,2020-02-08 18:04:13.288
"2/8/2020 18:04:13.300",1.094,-0.055,-0.547,2020-02-08 18:04:13.299
"2/8/2020 18:04:13.313",0.867,0.395,-1.215,2020-02-08 18:04:13.312
"2/8/2020 18:04:13.325",0.234,0.938,-2.289,2020-02-08 18:04:13.325
"2/8/2020 18:04:13.338",-0.453,1.508,-3.281,2020-02-08 18:04:13.338
"2/8/2020 18:04:13.350",-0.895,1.867,-3.973,2020-02-08 18:04:13.349
"2/8/2020 18:04:13.363",-0.949,1.906,-4.105,2020-02-08 18:04:13.362
"2/8/2020 18:04:13.375",-0.77,1.629,-3.758,2020-02-08 18:04:13.375
"2/8/2020 18:04:13.388",-0.645,1.199,-3.406,2020-02-08 18:04:13.388
"2/8/2020 18:04:13.400",-0.691,1.125,-3.051,2020-02-08 18:04:13.400
"2/8/2020 18:04:13.413",-0.691,0.926,-2.621,2020-02-08 18:04:13.413
"2/8/2020 18:04:13.425",-0.59,0.492,-2.332,2020-02-08 18:04:13.424
"2/8/2020 18:04:13.438",-0.445,0.055,-2.129,2020-02-08 18:04:13.437
"2/8/2020 18:04:13.450",-0.273,-0.398,-1.898,2020-02-08 18:04:13.450
"2/8/2020 18:04:13.463",-0.137,-0.559,-1.652,2020-02-08 18:04:13.463
"2/8/2020 18:04:13.475",-0.234,-0.297,-1.441,2020-02-08 18:04:13.474
"2/8/2020 18:04:13.488",-0.609,0.137,-1.332,2020-02-08 18:04:13.487
"2/8/2020 18:04:13.500",-1.137,0.438,-1.367,2020-02-08 18:04:13.500
"2/8/2020 18:04:13.513",-1.871,0.613,-1.563,2020-02-08 18:04:13.513
"2/8/2020 18:04:13.525",-2.133,0.797,-1.473,2020-02-08 18:04:13.525
"2/8/2020 18:04:13.538",-2.051,0.789,-1.332,2020-02-08 18:04:13.538
"2/8/2020 18:04:13.550",-2.07,0.43,-1.285,2020-02-08 18:04:13.549
"2/8/2020 18:04:13.563",-2.219,-0.008,-1.23,2020-02-08 18:04:13.562
"2/8/2020 18:04:13.575",-2.32,-0.211,-1.316,2020-02-08 18:04:13.575
"2/8/2020 18:04:13.588",-2.227,-0.016,-1.578,2020-02-08 18:04:13.588
"2/8/2020 18:04:13.600",-1.996,0.234,-1.793,2020-02-08 18:04:13.599
"2/8/2020 18:04:13.613",-1.668,0.262,-1.852,2020-02-08 18:04:13.612
"2/8/2020 18:04:13.625",-1.305,0.121,-1.77,2020-02-08 18:04:13.625
"2/8/2020 18:04:13.638",-0.93,-0.063,-1.715,2020-02-08 18:04:13.638
"2/8/2020 18:04:13.650",-0.539,-0.023,-1.734,2020-02-08 18:04:13.650
"2/8/2020 18:04:13.663",-0.168,0.223,-1.762,2020-02-08 18:04:13.663
"2/8/2020 18:04:13.675",0.098,0.594,-1.766,2020-02-08 18:04:13.674
"2/8/2020 18:04:13.688",0.359,0.992,-1.738,2020-02-08 18:04:13.687
"2/8/2020 18:04:13.700",0.484,1.453,-1.637,2020-02-08 18:04:13.700
"2/8/2020 18:04:13.713",0.531,2.125,-1.496,2020-02-08 18:04:13.713
"2/8/2020 18:04:13.725",0.652,2.91,-1.297,2020-02-08 18:04:13.724
"2/8/2020 18:04:13.738",0.789,3.363,-1.18,2020-02-08 18:04:13.737
"2/8/2020 18:04:13.750",0.895,3.676,-1.164,2020-02-08 18:04:13.750
"2/8/2020 18:04:13.763",0.82,4.008,-1.207,2020-02-08 18:04:13.763
"2/8/2020 18:04:13.775",0.617,4.141,-1.262,2020-02-08 18:04:13.775
"2/8/2020 18:04:13.788",0.43,4.055,-1.242,2020-02-08 18:04:13.788
"2/8/2020 18:04:13.800",0.332,3.926,-1.016,2020-02-08 18:04:13.799
"2/8/2020 18:04:13.813",0.305,3.73,-0.719,2020-02-08 18:04:13.812
"2/8/2020 18:04:13.825",0.352,3.434,-0.465,2020-02-08 18:04:13.825
"2/8/2020 18:04:13.838",0.445,3.066,-0.285,2020-02-08 18:04:13.838
"2/8/2020 18:04:13.850",0.488,2.66,-0.148,2020-02-08 18:04:13.849
"2/8/2020 18:04:13.863",0.543,2.234,-0.02,2020-02-08 18:04:13.862
"2/8/2020 18:04:13.875",0.727,1.813,0.094,2020-02-08 18:04:13.875
"2/8/2020 18:04:13.888",0.938,1.484,0.246,2020-02-08 18:04:13.888
"2/8/2020 18:04:13.900",1.016,1.266,0.469,2020-02-08 18:04:13.900
"2/8/2020 18:04:13.913",1.039,1.16,0.648,2020-02-08 18:04:13.913
"2/8/2020 18:04:13.925",1.203,1.082,0.75,2020-02-08 18:04:13.924
"2/8/2020 18:04:13.938",1.359,0.977,0.871,2020-02-08 18:04:13.937
"2/8/2020 18:04:13.950",1.449,0.777,0.988,2020-02-08 18:04:13.950
"2/8/2020 18:04:13.963",1.441,0.508,1.117,2020-02-08 18:04:13.963
"2/8/2020 18:04:13.975",1.367,0.234,1.234,2020-02-08 18:04:13.974
"2/8/2020 18:04:13.988",1.277,0.07,1.32,2020-02-08 18:04:13.987
"2/8/2020 18:04:14.000",1.188,-0.09,1.371,2020-02-08 18:04:14.000
"2/8/2020 18:04:14.013",1.086,-0.184,1.5,2020-02-08 18:04:14.013
"2/8/2020 18:04:14.025",0.895,-0.18,1.801,2020-02-08 18:04:14.025
"2/8/2020 18:04:14.038",0.57,-0.004,2.41,2020-02-08 18:04:14.038
"2/8/2020 18:04:14.050",0.285,0.027,3.012,2020-02-08 18:04:14.049
"2/8/2020 18:04:14.063",-0.027,0.02,3.41,2020-02-08 18:04:14.062
"2/8/2020 18:04:14.075",-0.434,0.145,3.535,2020-02-08 18:04:14.075
"2/8/2020 18:04:14.088",-0.844,0.359,3.59,2020-02-08 18:04:14.088
"2/8/2020 18:04:14.100",-1.098,0.484,3.555,2020-02-08 18:04:14.099
"2/8/2020 18:04:14.113",-1.336,0.508,3.539,2020-02-08 18:04:14.112
"2/8/2020 18:04:14.125",-1.594,0.367,3.48,2020-02-08 18:04:14.125
"2/8/2020 18:04:14.138",-1.926,0.07,3.063,2020-02-08 18:04:14.138
"2/8/2020 18:04:14.150",-2.223,-0.223,2.125,2020-02-08 18:04:14.150
"2/8/2020 18:04:14.163",-2.375,-0.574,1.031,2020-02-08 18:04:14.163
"2/8/2020 18:04:14.175",-2.234,-1.012,0.027,2020-02-08 18:04:14.174
"2/8/2020 18:04:14.188",-1.996,-1.543,-0.621,2020-02-08 18:04:14.187
"2/8/2020 18:04:14.200",-1.648,-2.102,-1.109,2020-02-08 18:04:14.200
"2/8/2020 18:04:14.213",-1.129,-2.191,-1.676,2020-02-08 18:04:14.213
"2/8/2020 18:04:14.225",-0.465,-2.52,-1.809,2020-02-08 18:04:14.224
"2/8/2020 18:04:14.238",0.418,-2.813,-1.273,2020-02-08 18:04:14.237
"2/8/2020 18:04:14.250",1.414,-3.32,-0.148,2020-02-08 18:04:14.250
"2/8/2020 18:04:14.263",1.68,-3.648,0.426,2020-02-08 18:04:14.263
"2/8/2020 18:04:14.275",1.105,-3.355,0.23,2020-02-08 18:04:14.275
"2/8/2020 18:04:14.288",0.707,-2.34,-0.109,2020-02-08 18:04:14.288
"2/8/2020 18:04:14.300",0.512,-1.559,-0.191,2020-02-08 18:04:14.299
"2/8/2020 18:04:14.313",0.469,-1.129,-0.246,2020-02-08 18:04:14.312
"2/8/2020 18:04:14.325",0.773,-0.727,-0.188,2020-02-08 18:04:14.325
"2/8/2020 18:04:14.338",0.906,-0.438,-0.164,2020-02-08 18:04:14.338
"2/8/2020 18:04:14.350",0.52,-0.02,-0.523,2020-02-08 18:04:14.349
"2/8/2020 18:04:14.363",0.078,0.289,-0.883,2020-02-08 18:04:14.362
"2/8/2020 18:04:14.375",-0.313,0.191,-1.117,2020-02-08 18:04:14.375
"2/8/2020 18:04:14.388",-0.82,0.402,-1.867,2020-02-08 18:04:14.388
"2/8/2020 18:04:14.400",-1.367,0.922,-2.613,2020-02-08 18:04:14.400
"2/8/2020 18:04:14.413",-1.676,1.211,-3.148,2020-02-08 18:04:14.413
"2/8/2020 18:04:14.425",-1.676,1.465,-3.527,2020-02-08 18:04:14.424
"2/8/2020 18:04:14.438",-1.586,1.402,-3.727,2020-02-08 18:04:14.437
"2/8/2020 18:04:14.450",-1.441,1.016,-3.863,2020-02-08 18:04:14.450
"2/8/2020 18:04:14.463",-0.98,0.637,-3.68,2020-02-08 18:04:14.463
"2/8/2020 18:04:14.475",-0.379,0.195,-3.348,2020-02-08 18:04:14.474
"2/8/2020 18:04:14.488",0.074,-0.164,-3.285,2020-02-08 18:04:14.487
"2/8/2020 18:04:14.500",0.227,-0.07,-3.352,2020-02-08 18:04:14.500
"2/8/2020 18:04:14.513",-0.023,0.527,-3.434,2020-02-08 18:04:14.513
"2/8/2020 18:04:14.525",-0.547,1.52,-3.105,2020-02-08 18:04:14.525
"2/8/2020 18:04:14.538",-1.703,2.207,-2.605,2020-02-08 18:04:14.538
"2/8/2020 18:04:14.550",-2.543,2.363,-2.535,2020-02-08 18:04:14.549
"2/8/2020 18:04:14.563",-1.547,1.273,-1.797,2020-02-08 18:04:14.562
"2/8/2020 18:04:14.575",-1.164,-0.367,-1.426,2020-02-08 18:04:14.575
"2/8/2020 18:04:14.588",-1.715,-1.102,-1.473,2020-02-08 18:04:14.588
"2/8/2020 18:04:14.600",-1.699,-0.438,-1.695,2020-02-08 18:04:14.599
"2/8/2020 18:04:14.613",-1.59,0.355,-1.949,2020-02-08 18:04:14.612
"2/8/2020 18:04:14.625",-1.449,0.488,-2.039,2020-02-08 18:04:14.625
"2/8/2020 18:04:14.638",-1.359,0.277,-2.07,2020-02-08 18:04:14.638
"2/8/2020 18:04:14.650",-1.219,0.117,-2.055,2020-02-08 18:04:14.650
"2/8/2020 18:04:14.663",-1.004,0.152,-2.125,2020-02-08 18:04:14.663
"2/8/2020 18:04:14.675",-0.836,0.227,-2.34,2020-02-08 18:04:14.674
"2/8/2020 18:04:14.688",-0.664,0.309,-2.586,2020-02-08 18:04:14.687
"2/8/2020 18:04:14.700",-0.48,0.492,-2.707,2020-02-08 18:04:14.700
"2/8/2020 18:04:14.713",-0.414,0.57,-2.754,2020-02-08 18:04:14.713
"2/8/2020 18:04:14.725",-0.426,0.805,-2.891,2020-02-08 18:04:14.724
"2/8/2020 18:04:14.738",-0.449,1.242,-3.172,2020-02-08 18:04:14.737
"2/8/2020 18:04:14.750",-0.461,1.551,-3.328,2020-02-08 18:04:14.750
"2/8/2020 18:04:14.763",-0.617,1.504,-3.355,2020-02-08 18:04:14.763
"2/8/2020 18:04:14.775",-0.766,1.496,-3.348,2020-02-08 18:04:14.775
"2/8/2020 18:04:14.788",-0.914,1.566,-3.426,2020-02-08 18:04:14.788
"2/8/2020 18:04:14.800",-1,1.648,-3.488,2020-02-08 18:04:14.799
"2/8/2020 18:04:14.813",-1.082,1.773,-3.438,2020-02-08 18:04:14.812
"2/8/2020 18:04:14.825",-1.113,1.996,-3.258,2020-02-08 18:04:14.825
"2/8/2020 18:04:14.838",-1.109,2.148,-2.926,2020-02-08 18:04:14.838
"2/8/2020 18:04:14.850",-1.023,2.133,-2.578,2020-02-08 18:04:14.849
"2/8/2020 18:04:14.863",-0.895,2.117,-2.32,2020-02-08 18:04:14.862
"2/8/2020 18:04:14.875",-0.777,2.156,-2.008,2020-02-08 18:04:14.875
"2/8/2020 18:04:14.888",-0.672,2.176,-1.652,2020-02-08 18:04:14.888
"2/8/2020 18:04:14.900",-0.52,2.133,-1.27,2020-02-08 18:04:14.900
"2/8/2020 18:04:14.913",-0.328,2.02,-1.004,2020-02-08 18:04:14.913
"2/8/2020 18:04:14.925",-0.07,1.879,-0.867,2020-02-08 18:04:14.924
"2/8/2020 18:04:14.938",0.156,1.695,-0.73,2020-02-08 18:04:14.937
"2/8/2020 18:04:14.950",0.25,1.578,-0.555,2020-02-08 18:04:14.950
"2/8/2020 18:04:14.963",0.344,1.535,-0.352,2020-02-08 18:04:14.963
"2/8/2020 18:04:14.975",0.461,1.477,-0.172,2020-02-08 18:04:14.974
"2/8/2020 18:04:14.988",0.582,1.398,-0.055,2020-02-08 18:04:14.987
"2/8/2020 18:04:15.000",0.652,1.359,0.016,2020-02-08 18:04:15.000
"2/8/2020 18:04:15.013",0.648,1.254,0.129,2020-02-08 18:04:15.013
"2/8/2020 18:04:15.025",0.605,1.105,0.246,2020-02-08 18:04:15.025
"2/8/2020 18:04:15.038",0.547,0.98,0.352,2020-02-08 18:04:15.038
"2/8/2020 18:04:15.050",0.539,0.879,0.453,2020-02-08 18:04:15.049
"2/8/2020 18:04:15.063",0.563,0.785,0.516,2020-02-08 18:04:15.062
"2/8/2020 18:04:15.075",0.551,0.719,0.547,2020-02-08 18:04:15.075
"2/8/2020 18:04:15.088",0.504,0.668,0.547,2020-02-08 18:04:15.088
"2/8/2020 18:04:15.100",0.441,0.539,0.551,2020-02-08 18:04:15.099
"2/8/2020 18:04:15.113",0.367,0.332,0.566,2020-02-08 18:04:15.112
"2/8/2020 18:04:15.125",0.313,0.152,0.578,2020-02-08 18:04:15.125
"2/8/2020 18:04:15.138",0.258,0,0.598,2020-02-08 18:04:15.138
"2/8/2020 18:04:15.150",0.203,-0.164,0.625,2020-02-08 18:04:15.150
"2/8/2020 18:04:15.163",0.141,-0.313,0.629,2020-02-08 18:04:15.163
"2/8/2020 18:04:15.175",0.094,-0.469,0.691,2020-02-08 18:04:15.174
"2/8/2020 18:04:15.188",0.02,-0.578,0.859,2020-02-08 18:04:15.187
"2/8/2020 18:04:15.200",-0.016,-0.609,1.004,2020-02-08 18:04:15.200
"2/8/2020 18:04:15.213",-0.059,-0.59,1.152,2020-02-08 18:04:15.213
"2/8/2020 18:04:15.225",-0.137,-0.477,1.324,2020-02-08 18:04:15.224
"2/8/2020 18:04:15.238",-0.211,-0.473,1.406,2020-02-08 18:04:15.237
"2/8/2020 18:04:15.250",-0.227,-0.457,1.398,2020-02-08 18:04:15.250
"2/8/2020 18:04:15.263",-0.328,-0.383,1.363,2020-02-08 18:04:15.263
"2/8/2020 18:04:15.275",-0.465,-0.379,1.387,2020-02-08 18:04:15.275
"2/8/2020 18:04:15.288",-0.586,-0.426,1.457,2020-02-08 18:04:15.288
"2/8/2020 18:04:15.300",-0.691,-0.457,1.559,2020-02-08 18:04:15.299
"2/8/2020 18:04:15.313",-0.773,-0.473,1.699,2020-02-08 18:04:15.312
"2/8/2020 18:04:15.325",-0.816,-0.531,1.77,2020-02-08 18:04:15.325
"2/8/2020 18:04:15.338",-0.844,-0.512,1.738,2020-02-08 18:04:15.338
"2/8/2020 18:04:15.350",-0.848,-0.426,1.605,2020-02-08 18:04:15.349
"2/8/2020 18:04:15.363",-0.805,-0.371,1.414,2020-02-08 18:04:15.362
"2/8/2020 18:04:15.375",-0.75,-0.422,1.324,2020-02-08 18:04:15.375
"2/8/2020 18:04:15.388",-0.762,-0.543,1.297,2020-02-08 18:04:15.388
"2/8/2020 18:04:15.400",-0.805,-0.617,1.379,2020-02-08 18:04:15.400
"2/8/2020 18:04:15.413",-0.895,-0.715,1.516,2020-02-08 18:04:15.413
"2/8/2020 18:04:15.425",-1.031,-0.836,1.516,2020-02-08 18:04:15.424
"2/8/2020 18:04:15.438",-1.074,-0.875,1.301,2020-02-08 18:04:15.437
"2/8/2020 18:04:15.450",-0.938,-0.773,0.965,2020-02-08 18:04:15.450
"2/8/2020 18:04:15.463",-0.801,-0.664,0.691,2020-02-08 18:04:15.463
"2/8/2020 18:04:15.475",-0.887,-0.645,0.559,2020-02-08 18:04:15.474
"2/8/2020 18:04:15.488",-1.094,-0.77,0.594,2020-02-08 18:04:15.487
"2/8/2020 18:04:15.500",-1.242,-1.137,0.777,2020-02-08 18:04:15.500
"2/8/2020 18:04:15.513",-1.285,-1.668,1.008,2020-02-08 18:04:15.513
"2/8/2020 18:04:15.525",-1.219,-2.008,1.133,2020-02-08 18:04:15.525
"2/8/2020 18:04:15.538",-1.129,-1.973,1.074,2020-02-08 18:04:15.538
"2/8/2020 18:04:15.550",-1.117,-1.766,0.922,2020-02-08 18:04:15.549
"2/8/2020 18:04:15.563",-1.16,-1.566,0.766,2020-02-08 18:04:15.562
"2/8/2020 18:04:15.575",-1.145,-1.355,0.648,2020-02-08 18:04:15.575
"2/8/2020 18:04:15.588",-1.121,-1.051,0.516,2020-02-08 18:04:15.588
"2/8/2020 18:04:15.600",-1.004,-0.723,0.484,2020-02-08 18:04:15.599
"2/8/2020 18:04:15.613",-0.852,-0.438,0.574,2020-02-08 18:04:15.612
"2/8/2020 18:04:15.625",-0.836,-0.172,0.621,2020-02-08 18:04:15.625
"2/8/2020 18:04:15.638",-0.723,0.059,0.629,2020-02-08 18:04:15.638
"2/8/2020 18:04:15.650",-0.578,0.211,0.641,2020-02-08 18:04:15.650
"2/8/2020 18:04:15.663",-0.508,0.324,0.641,2020-02-08 18:04:15.663
"2/8/2020 18:04:15.675",-0.355,0.402,0.699,2020-02-08 18:04:15.674
"2/8/2020 18:04:15.688",-0.043,0.426,0.879,2020-02-08 18:04:15.687
"2/8/2020 18:04:15.700",0.246,0.418,0.992,2020-02-08 18:04:15.700
"2/8/2020 18:04:15.713",0.438,0.461,0.926,2020-02-08 18:04:15.713
"2/8/2020 18:04:15.725",0.59,0.379,0.801,2020-02-08 18:04:15.724
"2/8/2020 18:04:15.738",0.766,0.258,0.707,2020-02-08 18:04:15.737
"2/8/2020 18:04:15.750",0.918,0.215,0.641,2020-02-08 18:04:15.750
"2/8/2020 18:04:15.763",0.98,0.172,0.605,2020-02-08 18:04:15.763
"2/8/2020 18:04:15.775",0.996,0.094,0.625,2020-02-08 18:04:15.775
"2/8/2020 18:04:15.788",0.984,0.047,0.637,2020-02-08 18:04:15.788
"2/8/2020 18:04:15.800",0.98,0.078,0.586,2020-02-08 18:04:15.799
"2/8/2020 18:04:15.813",0.949,0.078,0.484,2020-02-08 18:04:15.812
"2/8/2020 18:04:15.825",0.914,0.055,0.406,2020-02-08 18:04:15.825
"2/8/2020 18:04:15.838",0.852,0.055,0.328,2020-02-08 18:04:15.838
"2/8/2020 18:04:15.850",0.762,0.031,0.234,2020-02-08 18:04:15.849
"2/8/2020 18:04:15.863",0.668,0.051,0.102,2020-02-08 18:04:15.862
"2/8/2020 18:04:15.875",0.625,0.078,-0.004,2020-02-08 18:04:15.875
"2/8/2020 18:04:15.888",0.578,0.047,0.02,2020-02-08 18:04:15.888
"2/8/2020 18:04:15.900",0.508,-0.039,0.098,2020-02-08 18:04:15.900
"2/8/2020 18:04:15.913",0.453,-0.098,0.148,2020-02-08 18:04:15.913
"2/8/2020 18:04:15.925",0.367,-0.145,0.172,2020-02-08 18:04:15.924
"2/8/2020 18:04:15.938",0.27,-0.168,0.188,2020-02-08 18:04:15.937
"2/8/2020 18:04:15.950",0.172,-0.129,0.105,2020-02-08 18:04:15.950
"2/8/2020 18:04:15.963",0.117,-0.055,-0.004,2020-02-08 18:04:15.963
"2/8/2020 18:04:15.975",0.141,-0.008,-0.121,2020-02-08 18:04:15.974
"2/8/2020 18:04:15.988",0.219,-0.055,-0.152,2020-02-08 18:04:15.987
"2/8/2020 18:04:16.000",0.289,-0.102,-0.195,2020-02-08 18:04:16.000
"2/8/2020 18:04:16.013",0.281,-0.02,-0.305,2020-02-08 18:04:16.013
"2/8/2020 18:04:16.025",0.227,0.07,-0.445,2020-02-08 18:04:16.025
"2/8/2020 18:04:16.038",0.273,0.082,-0.59,2020-02-08 18:04:16.038
"2/8/2020 18:04:16.050",0.457,0.051,-0.766,2020-02-08 18:04:16.049
"2/8/2020 18:04:16.063",0.703,0.039,-1.051,2020-02-08 18:04:16.062
"2/8/2020 18:04:16.075",0.953,-0.035,-1.32,2020-02-08 18:04:16.075
"2/8/2020 18:04:16.088",1.227,-0.258,-1.496,2020-02-08 18:04:16.088
"2/8/2020 18:04:16.100",1.375,-0.43,-1.625,2020-02-08 18:04:16.099
"2/8/2020 18:04:16.113",1.461,-0.461,-1.547,2020-02-08 18:04:16.112
"2/8/2020 18:04:16.125",1.445,-0.32,-1.285,2020-02-08 18:04:16.125
"2/8/2020 18:04:16.138",1.195,0.102,-1.121,2020-02-08 18:04:16.138
"2/8/2020 18:04:16.150",0.773,0.52,-0.781,2020-02-08 18:04:16.150
"2/8/2020 18:04:16.163",0.438,0.527,-0.422,2020-02-08 18:04:16.163
"2/8/2020 18:04:16.175",0.316,0.34,-0.168,2020-02-08 18:04:16.174
"2/8/2020 18:04:16.188",0.242,0.047,0.023,2020-02-08 18:04:16.187
"2/8/2020 18:04:16.200",0.352,-0.074,0.063,2020-02-08 18:04:16.200
"2/8/2020 18:04:16.213",0.57,0.031,-0.012,2020-02-08 18:04:16.213
"2/8/2020 18:04:16.225",0.66,0.047,-0.012,2020-02-08 18:04:16.224
"2/8/2020 18:04:16.238",0.645,-0.16,0.117,2020-02-08 18:04:16.237
"2/8/2020 18:04:16.250",0.664,-0.262,0.191,2020-02-08 18:04:16.250
"2/8/2020 18:04:16.263",0.828,-0.098,0.152,2020-02-08 18:04:16.263
"2/8/2020 18:04:16.275",0.867,0.09,0.059,2020-02-08 18:04:16.275
"2/8/2020 18:04:16.288",0.828,0.07,0.043,2020-02-08 18:04:16.288
"2/8/2020 18:04:16.300",0.73,0.02,0.07,2020-02-08 18:04:16.299
"2/8/2020 18:04:16.313",0.629,-0.02,0.109,2020-02-08 18:04:16.312
"2/8/2020 18:04:16.325",0.66,-0.094,0.176,2020-02-08 18:04:16.325
"2/8/2020 18:04:16.338",0.719,-0.133,0.23,2020-02-08 18:04:16.338
"2/8/2020 18:04:16.350",0.727,-0.066,0.305,2020-02-08 18:04:16.349
"2/8/2020 18:04:16.363",0.754,-0.035,0.371,2020-02-08 18:04:16.362
"2/8/2020 18:04:16.375",0.707,-0.109,0.398,2020-02-08 18:04:16.375
"2/8/2020 18:04:16.388",0.637,-0.152,0.375,2020-02-08 18:04:16.388
"2/8/2020 18:04:16.400",0.609,-0.09,0.336,2020-02-08 18:04:16.400
"2/8/2020 18:04:16.413",0.563,0.031,0.359,2020-02-08 18:04:16.413
"2/8/2020 18:04:16.425",0.559,0.105,0.43,2020-02-08 18:04:16.424
"2/8/2020 18:04:16.438",0.547,0.016,0.52,2020-02-08 18:04:16.437
"2/8/2020 18:04:16.450",0.527,-0.148,0.559,2020-02-08 18:04:16.450
"2/8/2020 18:04:16.463",0.492,-0.172,0.512,2020-02-08 18:04:16.463
"2/8/2020 18:04:16.475",0.449,-0.09,0.457,2020-02-08 18:04:16.474
"2/8/2020 18:04:16.488",0.391,-0.027,0.469,2020-02-08 18:04:16.487
"2/8/2020 18:04:16.500",0.336,-0.047,0.504,2020-02-08 18:04:16.500
"2/8/2020 18:04:16.513",0.305,-0.105,0.535,2020-02-08 18:04:16.513
"2/8/2020 18:04:16.525",0.25,-0.246,0.496,2020-02-08 18:04:16.525
"2/8/2020 18:04:16.538",0.137,-0.32,0.438,2020-02-08 18:04:16.538
"2/8/2020 18:04:16.550",0.113,-0.195,0.383,2020-02-08 18:04:16.549
"2/8/2020 18:04:16.563",0.141,0.02,0.453,2020-02-08 18:04:16.562
"2/8/2020 18:04:16.575",0.148,0.016,0.621,2020-02-08 18:04:16.575
"2/8/2020 18:04:16.588",0.16,-0.047,0.727,2020-02-08 18:04:16.588
"2/8/2020 18:04:16.600",0.18,0.008,0.797,2020-02-08 18:04:16.599
"2/8/2020 18:04:16.613",0.18,0.102,0.891,2020-02-08 18:04:16.612
"2/8/2020 18:04:16.625",0.16,0.133,0.957,2020-02-08 18:04:16.625
"2/8/2020 18:04:16.638",0.219,0.164,1.016,2020-02-08 18:04:16.638
"2/8/2020 18:04:16.650",0.277,0.059,1.078,2020-02-08 18:04:16.650
"2/8/2020 18:04:16.663",0.34,-0.078,1.164,2020-02-08 18:04:16.663
"2/8/2020 18:04:16.675",0.379,-0.105,1.246,2020-02-08 18:04:16.674
"2/8/2020 18:04:16.688",0.367,-0.137,1.41,2020-02-08 18:04:16.687
"2/8/2020 18:04:16.700",0.316,-0.18,1.523,2020-02-08 18:04:16.700
"2/8/2020 18:04:16.713",0.277,-0.188,1.59,2020-02-08 18:04:16.713
"2/8/2020 18:04:16.725",0.227,-0.195,1.621,2020-02-08 18:04:16.724
"2/8/2020 18:04:16.738",0.176,-0.199,1.645,2020-02-08 18:04:16.737
"2/8/2020 18:04:16.750",0.156,-0.262,1.672,2020-02-08 18:04:16.750
"2/8/2020 18:04:16.763",0.156,-0.313,1.734,2020-02-08 18:04:16.763
"2/8/2020 18:04:16.775",0.133,-0.316,1.816,2020-02-08 18:04:16.775
"2/8/2020 18:04:16.788",0.109,-0.23,1.855,2020-02-08 18:04:16.788
"2/8/2020 18:04:16.800",0.098,-0.184,1.816,2020-02-08 18:04:16.799
"2/8/2020 18:04:16.813",0.059,-0.184,1.746,2020-02-08 18:04:16.812
"2/8/2020 18:04:16.825",0.012,-0.23,1.676,2020-02-08 18:04:16.825
"2/8/2020 18:04:16.838",-0.02,-0.336,1.645,2020-02-08 18:04:16.838
"2/8/2020 18:04:16.850",-0.047,-0.398,1.652,2020-02-08 18:04:16.849
"2/8/2020 18:04:16.863",-0.09,-0.422,1.602,2020-02-08 18:04:16.862
"2/8/2020 18:04:16.875",-0.105,-0.414,1.52,2020-02-08 18:04:16.875
"2/8/2020 18:04:16.888",-0.109,-0.383,1.43,2020-02-08 18:04:16.888
"2/8/2020 18:04:16.900",-0.145,-0.438,1.391,2020-02-08 18:04:16.900
"2/8/2020 18:04:16.913",-0.176,-0.539,1.324,2020-02-08 18:04:16.913
"2/8/2020 18:04:16.925",-0.172,-0.563,1.211,2020-02-08 18:04:16.924
"2/8/2020 18:04:16.938",-0.156,-0.539,1.109,2020-02-08 18:04:16.937
"2/8/2020 18:04:16.950",-0.16,-0.488,1.004,2020-02-08 18:04:16.950
"2/8/2020 18:04:16.963",-0.234,-0.547,1.043,2020-02-08 18:04:16.963
"2/8/2020 18:04:16.975",-0.313,-0.637,1.117,2020-02-08 18:04:16.974
"2/8/2020 18:04:16.988",-0.336,-0.684,1.125,2020-02-08 18:04:16.987
"2/8/2020 18:04:17.000",-0.332,-0.656,1.039,2020-02-08 18:04:17.000
"2/8/2020 18:04:17.013",-0.32,-0.617,0.906,2020-02-08 18:04:17.013
"2/8/2020 18:04:17.025",-0.324,-0.582,0.855,2020-02-08 18:04:17.025
"2/8/2020 18:04:17.038",-0.391,-0.586,0.949,2020-02-08 18:04:17.038
"2/8/2020 18:04:17.050",-0.535,-0.637,1.039,2020-02-08 18:04:17.049
"2/8/2020 18:04:17.063",-0.555,-0.609,1.102,2020-02-08 18:04:17.062
"2/8/2020 18:04:17.075",-0.52,-0.586,1.172,2020-02-08 18:04:17.075
"2/8/2020 18:04:17.088",-0.465,-0.508,1.16,2020-02-08 18:04:17.088
"2/8/2020 18:04:17.100",-0.422,-0.305,0.988,2020-02-08 18:04:17.099
"2/8/2020 18:04:17.113",-0.379,-0.168,0.852,2020-02-08 18:04:17.112
"2/8/2020 18:04:17.125",-0.445,-0.172,0.867,2020-02-08 18:04:17.125
"2/8/2020 18:04:17.138",-0.582,-0.379,0.969,2020-02-08 18:04:17.138
"2/8/2020 18:04:17.150",-0.676,-0.535,1.02,2020-02-08 18:04:17.150
"2/8/2020 18:04:17.163",-0.738,-0.645,0.965,2020-02-08 18:04:17.163
"2/8/2020 18:04:17.175",-0.723,-0.691,0.902,2020-02-08 18:04:17.174
"2/8/2020 18:04:17.188",-0.625,-0.648,0.805,2020-02-08 18:04:17.187
"2/8/2020 18:04:17.200",-0.512,-0.488,0.68,2020-02-08 18:04:17.200
"2/8/2020 18:04:17.213",-0.484,-0.273,0.563,2020-02-08 18:04:17.213
"2/8/2020 18:04:17.225",-0.512,-0.152,0.516,2020-02-08 18:04:17.224
"2/8/2020 18:04:17.238",-0.52,-0.152,0.496,2020-02-08 18:04:17.237
"2/8/2020 18:04:17.250",-0.5,-0.262,0.5,2020-02-08 18:04:17.250
"2/8/2020 18:04:17.263",-0.484,-0.383,0.508,2020-02-08 18:04:17.263
"2/8/2020 18:04:17.275",-0.461,-0.434,0.516,2020-02-08 18:04:17.275
"2/8/2020 18:04:17.288",-0.461,-0.453,0.504,2020-02-08 18:04:17.288
"2/8/2020 18:04:17.300",-0.461,-0.379,0.441,2020-02-08 18:04:17.299
"2/8/2020 18:04:17.313",-0.469,-0.301,0.367,2020-02-08 18:04:17.312
"2/8/2020 18:04:17.325",-0.516,-0.34,0.273,2020-02-08 18:04:17.325
"2/8/2020 18:04:17.338",-0.535,-0.43,0.219,2020-02-08 18:04:17.338
"2/8/2020 18:04:17.350",-0.5,-0.504,0.254,2020-02-08 18:04:17.349
"2/8/2020 18:04:17.363",-0.488,-0.594,0.281,2020-02-08 18:04:17.362
"2/8/2020 18:04:17.375",-0.5,-0.656,0.301,2020-02-08 18:04:17.375
"2/8/2020 18:04:17.388",-0.531,-0.723,0.324,2020-02-08 18:04:17.388
"2/8/2020 18:04:17.400",-0.547,-0.801,0.355,2020-02-08 18:04:17.400
"2/8/2020 18:04:17.413",-0.559,-0.855,0.414,2020-02-08 18:04:17.413
"2/8/2020 18:04:17.425",-0.57,-0.895,0.48,2020-02-08 18:04:17.424
"2/8/2020 18:04:17.438",-0.551,-0.941,0.531,2020-02-08 18:04:17.437
"2/8/2020 18:04:17.450",-0.484,-0.934,0.566,2020-02-08 18:04:17.450
"2/8/2020 18:04:17.463",-0.395,-0.871,0.574,2020-02-08 18:04:17.463
"2/8/2020 18:04:17.475",-0.313,-0.805,0.582,2020-02-08 18:04:17.474
"2/8/2020 18:04:17.488",-0.305,-0.777,0.598,2020-02-08 18:04:17.487
"2/8/2020 18:04:17.500",-0.359,-0.797,0.609,2020-02-08 18:04:17.500
"2/8/2020 18:04:17.513",-0.422,-0.867,0.602,2020-02-08 18:04:17.513
"2/8/2020 18:04:17.525",-0.473,-0.938,0.551,2020-02-08 18:04:17.525
"2/8/2020 18:04:17.538",-0.531,-1.008,0.449,2020-02-08 18:04:17.538
"2/8/2020 18:04:17.550",-0.543,-1.039,0.332,2020-02-08 18:04:17.549
"2/8/2020 18:04:17.563",-0.52,-1.055,0.168,2020-02-08 18:04:17.562
"2/8/2020 18:04:17.575",-0.465,-1.059,0.02,2020-02-08 18:04:17.575
"2/8/2020 18:04:17.588",-0.457,-1.055,-0.141,2020-02-08 18:04:17.588
"2/8/2020 18:04:17.600",-0.438,-0.98,-0.281,2020-02-08 18:04:17.599
"2/8/2020 18:04:17.613",-0.43,-0.891,-0.332,2020-02-08 18:04:17.612
"2/8/2020 18:04:17.625",-0.426,-0.754,-0.383,2020-02-08 18:04:17.625
"2/8/2020 18:04:17.638",-0.477,-0.645,-0.422,2020-02-08 18:04:17.638
"2/8/2020 18:04:17.650",-0.559,-0.449,-0.477,2020-02-08 18:04:17.650
"2/8/2020 18:04:17.663",-0.82,-0.117,-0.645,2020-02-08 18:04:17.663
"2/8/2020 18:04:17.675",-1.027,0.441,-0.938,2020-02-08 18:04:17.674
"2/8/2020 18:04:17.688",-1.051,0.977,-1.211,2020-02-08 18:04:17.687
"2/8/2020 18:04:17.700",-1.039,1.336,-1.383,2020-02-08 18:04:17.700
"2/8/2020 18:04:17.713",-0.945,1.457,-1.645,2020-02-08 18:04:17.713
"2/8/2020 18:04:17.725",-0.695,1.648,-2.004,2020-02-08 18:04:17.724
"2/8/2020 18:04:17.738",-0.32,1.93,-2.102,2020-02-08 18:04:17.737
"2/8/2020 18:04:17.750",-0.117,2.031,-1.961,2020-02-08 18:04:17.750
"2/8/2020 18:04:17.763",-0.141,1.941,-1.852,2020-02-08 18:04:17.763
"2/8/2020 18:04:17.775",-0.262,1.777,-1.828,2020-02-08 18:04:17.775
"2/8/2020 18:04:17.788",-0.406,1.602,-1.914,2020-02-08 18:04:17.788
"2/8/2020 18:04:17.800",-0.414,1.473,-2.066,2020-02-08 18:04:17.799
"2/8/2020 18:04:17.813",-0.309,1.395,-2.105,2020-02-08 18:04:17.812
"2/8/2020 18:04:17.825",-0.168,1.414,-2.043,2020-02-08 18:04:17.825
"2/8/2020 18:04:17.838",-0.129,1.324,-1.863,2020-02-08 18:04:17.838
"2/8/2020 18:04:17.850",-0.223,1.227,-1.68,2020-02-08 18:04:17.849
"2/8/2020 18:04:17.863",-0.324,1.059,-1.527,2020-02-08 18:04:17.862
"2/8/2020 18:04:17.875",-0.367,0.848,-1.422,2020-02-08 18:04:17.875
"2/8/2020 18:04:17.888",-0.332,0.723,-1.316,2020-02-08 18:04:17.888
"2/8/2020 18:04:17.900",-0.297,0.609,-1.215,2020-02-08 18:04:17.900
"2/8/2020 18:04:17.913",-0.191,0.484,-1.102,2020-02-08 18:04:17.913
"2/8/2020 18:04:17.925",-0.188,0.449,-1.066,2020-02-08 18:04:17.924
"2/8/2020 18:04:17.938",-0.191,0.406,-1.039,2020-02-08 18:04:17.937
"2/8/2020 18:04:17.950",-0.172,0.379,-0.996,2020-02-08 18:04:17.950
"2/8/2020 18:04:17.963",-0.156,0.367,-0.969,2020-02-08 18:04:17.963
"2/8/2020 18:04:17.975",-0.156,0.336,-0.938,2020-02-08 18:04:17.974
"2/8/2020 18:04:17.988",-0.156,0.289,-0.883,2020-02-08 18:04:17.987
"2/8/2020 18:04:18.000",-0.195,0.211,-0.828,2020-02-08 18:04:18.000
"2/8/2020 18:04:18.013",-0.238,0.133,-0.809,2020-02-08 18:04:18.013
"2/8/2020 18:04:18.025",-0.277,0.055,-0.828,2020-02-08 18:04:18.025
"2/8/2020 18:04:18.038",-0.285,0.02,-0.867,2020-02-08 18:04:18.038
"2/8/2020 18:04:18.050",-0.25,0.027,-0.887,2020-02-08 18:04:18.049
"2/8/2020 18:04:18.063",-0.223,0.098,-0.938,2020-02-08 18:04:18.062
"2/8/2020 18:04:18.075",-0.238,0.152,-0.988,2020-02-08 18:04:18.075
