"Timestamp","Accelerometer.X","Accelerometer.Y","Accelerometer.Z","DATE_TIME"
"2/8/2020 18:03:56.038",0.012,1.039,-0.051,2020-02-08 18:03:56.038
"2/8/2020 18:03:56.050",0.016,1.039,-0.016,2020-02-08 18:03:56.049
"2/8/2020 18:03:56.063",0.02,1.055,0.039,2020-02-08 18:03:56.062
"2/8/2020 18:03:56.075",0.043,1.051,0.016,2020-02-08 18:03:56.075
"2/8/2020 18:03:56.088",0.137,1.078,-0.059,2020-02-08 18:03:56.088
"2/8/2020 18:03:56.100",0.336,1.156,-0.18,2020-02-08 18:03:56.099
"2/8/2020 18:03:56.113",0.582,1.285,-0.051,2020-02-08 18:03:56.112
"2/8/2020 18:03:56.125",0.449,1.535,0.156,2020-02-08 18:03:56.125
"2/8/2020 18:03:56.138",-0.109,1.652,0.234,2020-02-08 18:03:56.138
"2/8/2020 18:03:56.150",-0.605,1.684,0.211,2020-02-08 18:03:56.150
"2/8/2020 18:03:56.163",-0.773,1.703,0.27,2020-02-08 18:03:56.163
"2/8/2020 18:03:56.175",-0.828,1.66,0.117,2020-02-08 18:03:56.174
"2/8/2020 18:03:56.188",-1.133,1.391,-0.059,2020-02-08 18:03:56.187
"2/8/2020 18:03:56.200",-1.309,1.199,-0.223,2020-02-08 18:03:56.200
"2/8/2020 18:03:56.213",-0.988,1.121,-0.453,2020-02-08 18:03:56.213
"2/8/2020 18:03:56.225",-0.457,1.063,-0.602,2020-02-08 18:03:56.224
"2/8/2020 18:03:56.238",-0.188,0.906,-0.637,2020-02-08 18:03:56.237
"2/8/2020 18:03:56.250",-0.184,0.684,-0.488,2020-02-08 18:03:56.250
"2/8/2020 18:03:56.263",-0.254,0.555,-0.328,2020-02-08 18:03:56.263
"2/8/2020 18:03:56.275",-0.352,0.426,-0.195,2020-02-08 18:03:56.275
"2/8/2020 18:03:56.288",-0.422,0.27,-0.051,2020-02-08 18:03:56.288
"2/8/2020 18:03:56.300",-0.473,0.137,0.074,2020-02-08 18:03:56.299
"2/8/2020 18:03:56.313",-0.496,0.051,0.176,2020-02-08 18:03:56.312
"2/8/2020 18:03:56.325",-0.535,0.031,0.246,2020-02-08 18:03:56.325
"2/8/2020 18:03:56.338",-0.574,0.016,0.289,2020-02-08 18:03:56.338
"2/8/2020 18:03:56.350",-0.57,0.031,0.285,2020-02-08 18:03:56.349
"2/8/2020 18:03:56.363",-0.465,0.078,0.215,2020-02-08 18:03:56.362
"2/8/2020 18:03:56.375",-0.348,0.129,0.133,2020-02-08 18:03:56.375
"2/8/2020 18:03:56.388",-0.332,0.172,0.105,2020-02-08 18:03:56.388
"2/8/2020 18:03:56.400",-0.359,0.207,0.113,2020-02-08 18:03:56.400
"2/8/2020 18:03:56.413",-0.449,0.242,0.133,2020-02-08 18:03:56.413
"2/8/2020 18:03:56.425",-0.566,0.254,0.137,2020-02-08 18:03:56.424
"2/8/2020 18:03:56.438",-0.664,0.25,0.113,2020-02-08 18:03:56.437
"2/8/2020 18:03:56.450",-0.707,0.262,0.086,2020-02-08 18:03:56.450
"2/8/2020 18:03:56.463",-0.688,0.266,0.07,2020-02-08 18:03:56.463
"2/8/2020 18:03:56.475",-0.574,0.277,0.047,2020-02-08 18:03:56.474
"2/8/2020 18:03:56.488",-0.352,0.313,0.027,2020-02-08 18:03:56.487
"2/8/2020 18:03:56.500",-0.055,0.305,0.07,2020-02-08 18:03:56.500
"2/8/2020 18:03:56.513",0.305,0.266,0.191,2020-02-08 18:03:56.513
"2/8/2020 18:03:56.525",0.652,0.172,0.359,2020-02-08 18:03:56.525
"2/8/2020 18:03:56.538",0.883,0.07,0.539,2020-02-08 18:03:56.538
"2/8/2020 18:03:56.550",1.098,-0.023,0.695,2020-02-08 18:03:56.549
"2/8/2020 18:03:56.563",1.273,-0.047,0.813,2020-02-08 18:03:56.562
"2/8/2020 18:03:56.575",1.152,0.082,0.855,2020-02-08 18:03:56.575
"2/8/2020 18:03:56.588",0.84,0.363,0.848,2020-02-08 18:03:56.588
"2/8/2020 18:03:56.600",0.773,2.145,-0.32,2020-02-08 18:03:56.599
"2/8/2020 18:03:56.613",-0.629,5.219,-0.285,2020-02-08 18:03:56.612
"2/8/2020 18:03:56.625",0.25,-0.617,-2.238,2020-02-08 18:03:56.625
"2/8/2020 18:03:56.638",1.543,-1,-0.773,2020-02-08 18:03:56.638
"2/8/2020 18:03:56.650",2.883,-0.543,-0.027,2020-02-08 18:03:56.650
"2/8/2020 18:03:56.663",1.059,-0.156,0.035,2020-02-08 18:03:56.663
"2/8/2020 18:03:56.675",-0.563,0.441,-0.133,2020-02-08 18:03:56.674
"2/8/2020 18:03:56.688",-0.492,1.008,-0.246,2020-02-08 18:03:56.687
"2/8/2020 18:03:56.700",-0.324,1.734,0.082,2020-02-08 18:03:56.700
"2/8/2020 18:03:56.713",-0.102,2.008,0.148,2020-02-08 18:03:56.713
"2/8/2020 18:03:56.725",-0.094,1.41,0.223,2020-02-08 18:03:56.724
"2/8/2020 18:03:56.738",-0.305,0.875,0.266,2020-02-08 18:03:56.737
"2/8/2020 18:03:56.750",-0.563,0.492,0.285,2020-02-08 18:03:56.750
"2/8/2020 18:03:56.763",-0.477,0.586,0.215,2020-02-08 18:03:56.763
"2/8/2020 18:03:56.775",-0.242,0.926,0.168,2020-02-08 18:03:56.775
"2/8/2020 18:03:56.788",-0.082,1.203,0.219,2020-02-08 18:03:56.788
"2/8/2020 18:03:56.800",-0.012,1.297,0.332,2020-02-08 18:03:56.799
"2/8/2020 18:03:56.813",-0.094,1.188,0.418,2020-02-08 18:03:56.812
"2/8/2020 18:03:56.825",-0.266,1.051,0.52,2020-02-08 18:03:56.825
"2/8/2020 18:03:56.838",-0.566,1.004,0.652,2020-02-08 18:03:56.838
"2/8/2020 18:03:56.850",-0.914,0.891,0.676,2020-02-08 18:03:56.849
"2/8/2020 18:03:56.863",-1.07,0.707,0.516,2020-02-08 18:03:56.862
"2/8/2020 18:03:56.875",-1.18,0.73,0.254,2020-02-08 18:03:56.875
"2/8/2020 18:03:56.888",-0.957,1.039,-0.438,2020-02-08 18:03:56.888
"2/8/2020 18:03:56.900",-0.918,1.328,-1.137,2020-02-08 18:03:56.900
"2/8/2020 18:03:56.913",-1.258,1.574,-1.637,2020-02-08 18:03:56.913
"2/8/2020 18:03:56.925",-1.387,1.543,-1.602,2020-02-08 18:03:56.924
"2/8/2020 18:03:56.938",-1.32,1.426,-1.313,2020-02-08 18:03:56.937
"2/8/2020 18:03:56.950",-1.289,1.242,-0.945,2020-02-08 18:03:56.950
"2/8/2020 18:03:56.963",-1.418,0.992,-0.488,2020-02-08 18:03:56.963
"2/8/2020 18:03:56.975",-1.57,0.766,-0.113,2020-02-08 18:03:56.974
"2/8/2020 18:03:56.988",-1.574,0.66,0.094,2020-02-08 18:03:56.987
"2/8/2020 18:03:57.000",-1.395,0.594,0.145,2020-02-08 18:03:57.000
"2/8/2020 18:03:57.013",-1.113,0.523,0.168,2020-02-08 18:03:57.013
"2/8/2020 18:03:57.025",-0.816,0.488,0.199,2020-02-08 18:03:57.025
"2/8/2020 18:03:57.038",-0.512,0.461,0.184,2020-02-08 18:03:57.038
"2/8/2020 18:03:57.050",-0.215,0.441,0.168,2020-02-08 18:03:57.049
"2/8/2020 18:03:57.063",0.008,0.395,0.152,2020-02-08 18:03:57.062
"2/8/2020 18:03:57.075",0.23,0.363,0.137,2020-02-08 18:03:57.075
"2/8/2020 18:03:57.088",0.387,0.344,0.145,2020-02-08 18:03:57.088
"2/8/2020 18:03:57.100",0.441,0.332,0.152,2020-02-08 18:03:57.099
"2/8/2020 18:03:57.113",0.367,0.281,0.066,2020-02-08 18:03:57.112
"2/8/2020 18:03:57.125",0.191,0.117,-0.004,2020-02-08 18:03:57.125
"2/8/2020 18:03:57.138",0.152,-0.078,0.039,2020-02-08 18:03:57.138
"2/8/2020 18:03:57.150",0.313,-0.156,0.148,2020-02-08 18:03:57.150
"2/8/2020 18:03:57.163",0.512,-0.113,0.215,2020-02-08 18:03:57.163
"2/8/2020 18:03:57.175",0.809,-0.035,0.23,2020-02-08 18:03:57.174
"2/8/2020 18:03:57.188",1.066,0.059,0.246,2020-02-08 18:03:57.187
"2/8/2020 18:03:57.200",1.086,0.227,0.203,2020-02-08 18:03:57.200
"2/8/2020 18:03:57.213",0.371,0.551,-0.449,2020-02-08 18:03:57.213
"2/8/2020 18:03:57.225",-1.871,0.949,-2.926,2020-02-08 18:03:57.224
"2/8/2020 18:03:57.238",-3.203,5.125,1.672,2020-02-08 18:03:57.237
"2/8/2020 18:03:57.250",1.297,1.426,-1.348,2020-02-08 18:03:57.250
"2/8/2020 18:03:57.263",2.793,0.523,-1.617,2020-02-08 18:03:57.263
"2/8/2020 18:03:57.275",1.172,-0.34,0.352,2020-02-08 18:03:57.275
"2/8/2020 18:03:57.288",-0.219,0.148,0.008,2020-02-08 18:03:57.288
"2/8/2020 18:03:57.300",0.125,0.715,0.25,2020-02-08 18:03:57.299
"2/8/2020 18:03:57.313",0.031,1.09,0.207,2020-02-08 18:03:57.312
"2/8/2020 18:03:57.325",0.07,1.293,-0.051,2020-02-08 18:03:57.325
"2/8/2020 18:03:57.338",0.117,1.141,0.016,2020-02-08 18:03:57.338
"2/8/2020 18:03:57.350",0.035,0.898,0.066,2020-02-08 18:03:57.349
"2/8/2020 18:03:57.363",-0.406,0.824,0.137,2020-02-08 18:03:57.362
"2/8/2020 18:03:57.375",-0.637,0.938,0.012,2020-02-08 18:03:57.375
"2/8/2020 18:03:57.388",-0.398,1.043,-0.164,2020-02-08 18:03:57.388
"2/8/2020 18:03:57.400",0.082,1.059,-0.32,2020-02-08 18:03:57.400
"2/8/2020 18:03:57.413",0.32,0.945,-0.281,2020-02-08 18:03:57.413
"2/8/2020 18:03:57.425",0.215,0.852,-0.297,2020-02-08 18:03:57.424
"2/8/2020 18:03:57.438",-0.027,0.941,-0.191,2020-02-08 18:03:57.437
"2/8/2020 18:03:57.450",-0.238,1.141,-0.09,2020-02-08 18:03:57.450
"2/8/2020 18:03:57.463",-0.383,1.227,0.012,2020-02-08 18:03:57.463
"2/8/2020 18:03:57.475",-0.391,1.211,0.074,2020-02-08 18:03:57.474
"2/8/2020 18:03:57.488",-0.375,1.184,0.098,2020-02-08 18:03:57.487
"2/8/2020 18:03:57.500",-0.43,1.141,0.09,2020-02-08 18:03:57.500
"2/8/2020 18:03:57.513",-0.418,0.996,0.016,2020-02-08 18:03:57.513
"2/8/2020 18:03:57.525",-0.34,0.805,-0.094,2020-02-08 18:03:57.525
"2/8/2020 18:03:57.538",-0.383,0.672,-0.262,2020-02-08 18:03:57.538
"2/8/2020 18:03:57.550",-0.512,0.633,-0.426,2020-02-08 18:03:57.549
"2/8/2020 18:03:57.563",-0.344,0.98,-0.605,2020-02-08 18:03:57.562
"2/8/2020 18:03:57.575",0.055,1.742,-0.496,2020-02-08 18:03:57.575
"2/8/2020 18:03:57.588",-0.133,1.93,0.035,2020-02-08 18:03:57.588
"2/8/2020 18:03:57.600",-0.406,1.301,0.203,2020-02-08 18:03:57.599
"2/8/2020 18:03:57.613",-0.516,0.785,-0.023,2020-02-08 18:03:57.612
"2/8/2020 18:03:57.625",-0.52,0.703,-0.27,2020-02-08 18:03:57.625
"2/8/2020 18:03:57.638",-0.379,0.863,-0.375,2020-02-08 18:03:57.638
"2/8/2020 18:03:57.650",-0.25,0.941,-0.398,2020-02-08 18:03:57.650
"2/8/2020 18:03:57.663",-0.242,0.891,-0.359,2020-02-08 18:03:57.663
"2/8/2020 18:03:57.675",-0.309,0.855,-0.293,2020-02-08 18:03:57.674
"2/8/2020 18:03:57.688",-0.328,0.898,-0.285,2020-02-08 18:03:57.687
"2/8/2020 18:03:57.700",-0.297,0.953,-0.309,2020-02-08 18:03:57.700
"2/8/2020 18:03:57.713",-0.246,0.941,-0.293,2020-02-08 18:03:57.713
"2/8/2020 18:03:57.725",-0.176,0.93,-0.27,2020-02-08 18:03:57.724
"2/8/2020 18:03:57.738",-0.141,0.926,-0.273,2020-02-08 18:03:57.737
"2/8/2020 18:03:57.750",-0.094,0.957,-0.246,2020-02-08 18:03:57.750
"2/8/2020 18:03:57.763",-0.07,0.965,-0.242,2020-02-08 18:03:57.763
"2/8/2020 18:03:57.775",-0.066,0.957,-0.266,2020-02-08 18:03:57.775
"2/8/2020 18:03:57.788",-0.094,0.922,-0.262,2020-02-08 18:03:57.788
"2/8/2020 18:03:57.800",-0.09,0.934,-0.258,2020-02-08 18:03:57.799
"2/8/2020 18:03:57.813",-0.023,0.953,-0.309,2020-02-08 18:03:57.812
"2/8/2020 18:03:57.825",-0.125,0.941,-0.406,2020-02-08 18:03:57.825
"2/8/2020 18:03:57.838",-0.309,0.941,-0.328,2020-02-08 18:03:57.838
"2/8/2020 18:03:57.850",-0.254,0.98,-0.117,2020-02-08 18:03:57.849
"2/8/2020 18:03:57.863",-0.09,1.027,-0.016,2020-02-08 18:03:57.862
"2/8/2020 18:03:57.875",-0.02,1.023,-0.004,2020-02-08 18:03:57.875
"2/8/2020 18:03:57.888",-0.027,1.035,-0.02,2020-02-08 18:03:57.888
"2/8/2020 18:03:57.900",-0.059,1.035,-0.113,2020-02-08 18:03:57.900
"2/8/2020 18:03:57.913",-0.055,1.004,-0.258,2020-02-08 18:03:57.913
"2/8/2020 18:03:57.925",0.016,0.961,-0.332,2020-02-08 18:03:57.924
"2/8/2020 18:03:57.938",0.078,0.941,-0.316,2020-02-08 18:03:57.937
"2/8/2020 18:03:57.950",0.004,1,-0.254,2020-02-08 18:03:57.950
"2/8/2020 18:03:57.963",-0.082,1.121,-0.152,2020-02-08 18:03:57.963
"2/8/2020 18:03:57.975",-0.129,1.242,-0.023,2020-02-08 18:03:57.974
"2/8/2020 18:03:57.988",-0.121,1.266,0.035,2020-02-08 18:03:57.987
"2/8/2020 18:03:58.000",-0.113,1.207,0.051,2020-02-08 18:03:58.000
"2/8/2020 18:03:58.013",-0.164,1.133,0.008,2020-02-08 18:03:58.013
"2/8/2020 18:03:58.025",-0.23,1.094,-0.07,2020-02-08 18:03:58.025
"2/8/2020 18:03:58.038",-0.285,1.113,-0.18,2020-02-08 18:03:58.038
"2/8/2020 18:03:58.050",-0.391,1.156,-0.367,2020-02-08 18:03:58.049
"2/8/2020 18:03:58.063",-0.523,1.195,-0.617,2020-02-08 18:03:58.062
"2/8/2020 18:03:58.075",-0.539,1.168,-0.699,2020-02-08 18:03:58.075
"2/8/2020 18:03:58.088",-0.547,1.074,-0.676,2020-02-08 18:03:58.088
"2/8/2020 18:03:58.100",-0.504,0.977,-0.531,2020-02-08 18:03:58.099
"2/8/2020 18:03:58.113",-0.406,0.875,-0.297,2020-02-08 18:03:58.112
"2/8/2020 18:03:58.125",-0.355,0.797,-0.078,2020-02-08 18:03:58.125
"2/8/2020 18:03:58.138",-0.375,0.773,0.055,2020-02-08 18:03:58.138
"2/8/2020 18:03:58.150",-0.398,0.77,0.121,2020-02-08 18:03:58.150
"2/8/2020 18:03:58.163",-0.418,0.742,0.164,2020-02-08 18:03:58.163
"2/8/2020 18:03:58.175",-0.402,0.723,0.219,2020-02-08 18:03:58.174
"2/8/2020 18:03:58.188",-0.371,0.723,0.254,2020-02-08 18:03:58.187
"2/8/2020 18:03:58.200",-0.359,0.746,0.277,2020-02-08 18:03:58.200
"2/8/2020 18:03:58.213",-0.301,0.754,0.309,2020-02-08 18:03:58.213
"2/8/2020 18:03:58.225",-0.219,0.836,0.336,2020-02-08 18:03:58.224
"2/8/2020 18:03:58.238",-0.156,0.898,0.363,2020-02-08 18:03:58.237
"2/8/2020 18:03:58.250",-0.152,0.883,0.41,2020-02-08 18:03:58.250
"2/8/2020 18:03:58.263",-0.156,0.82,0.438,2020-02-08 18:03:58.263
"2/8/2020 18:03:58.275",-0.141,0.738,0.445,2020-02-08 18:03:58.275
"2/8/2020 18:03:58.288",-0.176,0.66,0.445,2020-02-08 18:03:58.288
"2/8/2020 18:03:58.300",-0.316,0.559,0.48,2020-02-08 18:03:58.299
"2/8/2020 18:03:58.313",-0.426,0.547,0.516,2020-02-08 18:03:58.312
"2/8/2020 18:03:58.325",-0.406,0.602,0.484,2020-02-08 18:03:58.325
"2/8/2020 18:03:58.338",-0.328,0.605,0.43,2020-02-08 18:03:58.338
"2/8/2020 18:03:58.350",-0.25,0.578,0.395,2020-02-08 18:03:58.349
"2/8/2020 18:03:58.363",-0.18,0.555,0.301,2020-02-08 18:03:58.362
"2/8/2020 18:03:58.375",-0.066,0.488,0.207,2020-02-08 18:03:58.375
"2/8/2020 18:03:58.388",0.027,0.402,0.145,2020-02-08 18:03:58.388
"2/8/2020 18:03:58.400",0.125,0.352,0.066,2020-02-08 18:03:58.400
"2/8/2020 18:03:58.413",0.184,0.34,-0.152,2020-02-08 18:03:58.413
"2/8/2020 18:03:58.425",-1.137,0.23,-1.211,2020-02-08 18:03:58.424
"2/8/2020 18:03:58.438",-2.367,0.512,-1.168,2020-02-08 18:03:58.437
"2/8/2020 18:03:58.450",-0.863,1.285,-0.777,2020-02-08 18:03:58.450
"2/8/2020 18:03:58.463",0.504,1.43,-0.094,2020-02-08 18:03:58.463
"2/8/2020 18:03:58.475",0.094,1.156,-0.359,2020-02-08 18:03:58.474
"2/8/2020 18:03:58.488",-0.586,1.188,-0.293,2020-02-08 18:03:58.487
"2/8/2020 18:03:58.500",-0.742,1.254,-0.266,2020-02-08 18:03:58.500
"2/8/2020 18:03:58.513",-0.645,1.234,-0.012,2020-02-08 18:03:58.513
"2/8/2020 18:03:58.525",-0.984,1.375,0.223,2020-02-08 18:03:58.525
"2/8/2020 18:03:58.538",-1.027,2.074,0.547,2020-02-08 18:03:58.538
"2/8/2020 18:03:58.550",-0.492,2.191,0.523,2020-02-08 18:03:58.549
"2/8/2020 18:03:58.563",-0.547,1.285,-0.012,2020-02-08 18:03:58.562
"2/8/2020 18:03:58.575",-0.473,0.582,-0.266,2020-02-08 18:03:58.575
"2/8/2020 18:03:58.588",-0.359,0.355,-0.441,2020-02-08 18:03:58.588
"2/8/2020 18:03:58.600",-0.184,0.551,-0.477,2020-02-08 18:03:58.599
"2/8/2020 18:03:58.613",-0.168,0.789,-0.477,2020-02-08 18:03:58.612
"2/8/2020 18:03:58.625",-0.184,0.949,-0.465,2020-02-08 18:03:58.625
"2/8/2020 18:03:58.638",-0.18,1,-0.453,2020-02-08 18:03:58.638
"2/8/2020 18:03:58.650",-0.176,0.957,-0.375,2020-02-08 18:03:58.650
"2/8/2020 18:03:58.663",-0.25,0.953,-0.297,2020-02-08 18:03:58.663
"2/8/2020 18:03:58.675",-0.402,0.898,-0.223,2020-02-08 18:03:58.674
"2/8/2020 18:03:58.688",-0.438,0.867,-0.219,2020-02-08 18:03:58.687
"2/8/2020 18:03:58.700",-0.406,0.871,-0.219,2020-02-08 18:03:58.700
"2/8/2020 18:03:58.713",-0.332,0.902,-0.207,2020-02-08 18:03:58.713
"2/8/2020 18:03:58.725",-0.309,0.895,-0.172,2020-02-08 18:03:58.724
"2/8/2020 18:03:58.738",-0.359,0.867,-0.133,2020-02-08 18:03:58.737
"2/8/2020 18:03:58.750",-0.41,0.871,-0.129,2020-02-08 18:03:58.750
"2/8/2020 18:03:58.763",-0.473,0.883,-0.125,2020-02-08 18:03:58.763
"2/8/2020 18:03:58.775",-0.488,0.875,-0.117,2020-02-08 18:03:58.775
"2/8/2020 18:03:58.788",-0.461,0.871,-0.129,2020-02-08 18:03:58.788
"2/8/2020 18:03:58.800",-0.379,0.879,-0.176,2020-02-08 18:03:58.799
"2/8/2020 18:03:58.813",-0.305,0.895,-0.199,2020-02-08 18:03:58.812
"2/8/2020 18:03:58.825",-0.23,0.922,-0.188,2020-02-08 18:03:58.825
"2/8/2020 18:03:58.838",-0.16,0.945,-0.191,2020-02-08 18:03:58.838
"2/8/2020 18:03:58.850",-0.184,0.934,-0.191,2020-02-08 18:03:58.849
"2/8/2020 18:03:58.863",-0.227,0.926,-0.16,2020-02-08 18:03:58.862
"2/8/2020 18:03:58.875",-0.32,0.926,-0.125,2020-02-08 18:03:58.875
"2/8/2020 18:03:58.888",-0.328,0.918,-0.078,2020-02-08 18:03:58.888
"2/8/2020 18:03:58.900",-0.246,0.93,-0.074,2020-02-08 18:03:58.900
"2/8/2020 18:03:58.913",-0.148,0.949,-0.078,2020-02-08 18:03:58.913
"2/8/2020 18:03:58.925",-0.125,0.973,-0.09,2020-02-08 18:03:58.924
"2/8/2020 18:03:58.938",-0.086,0.973,-0.09,2020-02-08 18:03:58.937
"2/8/2020 18:03:58.950",-0.051,0.98,-0.09,2020-02-08 18:03:58.950
"2/8/2020 18:03:58.963",-0.004,0.984,-0.082,2020-02-08 18:03:58.963
"2/8/2020 18:03:58.975",-0.027,0.996,-0.07,2020-02-08 18:03:58.974
"2/8/2020 18:03:58.988",-0.055,0.996,-0.051,2020-02-08 18:03:58.987
"2/8/2020 18:03:59.000",-0.094,0.992,-0.074,2020-02-08 18:03:59.000
"2/8/2020 18:03:59.013",-0.109,0.988,-0.109,2020-02-08 18:03:59.013
"2/8/2020 18:03:59.025",-0.094,0.977,-0.113,2020-02-08 18:03:59.025
"2/8/2020 18:03:59.038",-0.063,0.973,-0.102,2020-02-08 18:03:59.038
"2/8/2020 18:03:59.050",-0.086,0.988,-0.117,2020-02-08 18:03:59.049
"2/8/2020 18:03:59.063",-0.148,0.973,-0.098,2020-02-08 18:03:59.062
"2/8/2020 18:03:59.075",-0.176,0.961,-0.09,2020-02-08 18:03:59.075
"2/8/2020 18:03:59.088",-0.172,0.957,-0.051,2020-02-08 18:03:59.088
"2/8/2020 18:03:59.100",-0.176,0.969,-0.027,2020-02-08 18:03:59.099
"2/8/2020 18:03:59.113",-0.219,0.953,-0.004,2020-02-08 18:03:59.112
"2/8/2020 18:03:59.125",-0.258,0.934,0.004,2020-02-08 18:03:59.125
"2/8/2020 18:03:59.138",-0.277,0.93,-0.023,2020-02-08 18:03:59.138
"2/8/2020 18:03:59.150",-0.281,0.922,-0.055,2020-02-08 18:03:59.150
"2/8/2020 18:03:59.163",-0.309,0.914,-0.07,2020-02-08 18:03:59.163
"2/8/2020 18:03:59.175",-0.32,0.914,-0.059,2020-02-08 18:03:59.174
"2/8/2020 18:03:59.188",-0.332,0.922,-0.051,2020-02-08 18:03:59.187
"2/8/2020 18:03:59.200",-0.336,0.934,-0.016,2020-02-08 18:03:59.200
"2/8/2020 18:03:59.213",-0.324,0.949,0,2020-02-08 18:03:59.213
"2/8/2020 18:03:59.225",-0.281,0.957,-0.016,2020-02-08 18:03:59.224
"2/8/2020 18:03:59.238",-0.254,0.941,-0.066,2020-02-08 18:03:59.237
"2/8/2020 18:03:59.250",-0.234,0.93,-0.121,2020-02-08 18:03:59.250
"2/8/2020 18:03:59.263",-0.203,0.941,-0.145,2020-02-08 18:03:59.263
"2/8/2020 18:03:59.275",-0.168,0.949,-0.137,2020-02-08 18:03:59.275
"2/8/2020 18:03:59.288",-0.156,0.949,-0.129,2020-02-08 18:03:59.288
"2/8/2020 18:03:59.300",-0.191,0.973,-0.105,2020-02-08 18:03:59.299
"2/8/2020 18:03:59.313",-0.25,0.988,-0.098,2020-02-08 18:03:59.312
"2/8/2020 18:03:59.325",-0.266,0.984,-0.102,2020-02-08 18:03:59.325
"2/8/2020 18:03:59.338",-0.23,0.938,-0.113,2020-02-08 18:03:59.338
"2/8/2020 18:03:59.350",-0.199,0.918,-0.176,2020-02-08 18:03:59.349
"2/8/2020 18:03:59.363",-0.223,0.91,-0.207,2020-02-08 18:03:59.362
"2/8/2020 18:03:59.375",-0.215,0.93,-0.234,2020-02-08 18:03:59.375
"2/8/2020 18:03:59.388",-0.203,0.934,-0.234,2020-02-08 18:03:59.388
"2/8/2020 18:03:59.400",-0.227,0.918,-0.195,2020-02-08 18:03:59.400
"2/8/2020 18:03:59.413",-0.258,0.922,-0.184,2020-02-08 18:03:59.413
"2/8/2020 18:03:59.425",-0.281,0.906,-0.184,2020-02-08 18:03:59.424
"2/8/2020 18:03:59.438",-0.238,0.918,-0.176,2020-02-08 18:03:59.437
"2/8/2020 18:03:59.450",-0.223,0.934,-0.164,2020-02-08 18:03:59.450
"2/8/2020 18:03:59.463",-0.277,0.918,-0.156,2020-02-08 18:03:59.463
"2/8/2020 18:03:59.475",-0.273,0.906,-0.148,2020-02-08 18:03:59.474
"2/8/2020 18:03:59.488",-0.23,0.918,-0.152,2020-02-08 18:03:59.487
"2/8/2020 18:03:59.500",-0.25,0.918,-0.16,2020-02-08 18:03:59.500
"2/8/2020 18:03:59.513",-0.266,0.898,-0.172,2020-02-08 18:03:59.513
"2/8/2020 18:03:59.525",-0.293,0.902,-0.184,2020-02-08 18:03:59.525
"2/8/2020 18:03:59.538",-0.293,0.898,-0.172,2020-02-08 18:03:59.538
"2/8/2020 18:03:59.550",-0.305,0.898,-0.145,2020-02-08 18:03:59.549
"2/8/2020 18:03:59.563",-0.297,0.914,-0.113,2020-02-08 18:03:59.562
"2/8/2020 18:03:59.575",-0.258,0.949,-0.078,2020-02-08 18:03:59.575
"2/8/2020 18:03:59.588",-0.227,0.945,-0.129,2020-02-08 18:03:59.588
"2/8/2020 18:03:59.600",-0.336,0.898,-0.168,2020-02-08 18:03:59.599
"2/8/2020 18:03:59.613",-0.355,0.891,-0.176,2020-02-08 18:03:59.612
"2/8/2020 18:03:59.625",-0.332,0.922,-0.172,2020-02-08 18:03:59.625
"2/8/2020 18:03:59.638",-0.367,0.969,-0.199,2020-02-08 18:03:59.638
"2/8/2020 18:03:59.650",-0.387,1.051,-0.223,2020-02-08 18:03:59.650
"2/8/2020 18:03:59.663",-0.262,1.109,-0.215,2020-02-08 18:03:59.663
"2/8/2020 18:03:59.675",-0.152,1.148,-0.27,2020-02-08 18:03:59.674
"2/8/2020 18:03:59.688",-0.102,1.141,-0.422,2020-02-08 18:03:59.687
"2/8/2020 18:03:59.700",-0.066,1.152,-0.609,2020-02-08 18:03:59.700
"2/8/2020 18:03:59.713",-0.02,1.215,-0.699,2020-02-08 18:03:59.713
"2/8/2020 18:03:59.725",0.125,1.391,-0.883,2020-02-08 18:03:59.724
"2/8/2020 18:03:59.738",0.246,1.465,-1.066,2020-02-08 18:03:59.737
"2/8/2020 18:03:59.750",0.266,1.508,-0.996,2020-02-08 18:03:59.750
"2/8/2020 18:03:59.763",0.535,1.441,-0.773,2020-02-08 18:03:59.763
"2/8/2020 18:03:59.775",0.785,1.211,-0.445,2020-02-08 18:03:59.775
"2/8/2020 18:03:59.788",0.777,0.949,-0.055,2020-02-08 18:03:59.788
"2/8/2020 18:03:59.800",0.52,0.852,0.262,2020-02-08 18:03:59.799
"2/8/2020 18:03:59.813",0.203,0.898,0.508,2020-02-08 18:03:59.812
"2/8/2020 18:03:59.825",-0.008,0.977,0.672,2020-02-08 18:03:59.825
"2/8/2020 18:03:59.838",-0.121,1.051,0.844,2020-02-08 18:03:59.838
"2/8/2020 18:03:59.850",-0.121,1.094,0.922,2020-02-08 18:03:59.849
"2/8/2020 18:03:59.863",-0.066,1.113,1.004,2020-02-08 18:03:59.862
"2/8/2020 18:03:59.875",-0.176,1.023,1.105,2020-02-08 18:03:59.875
"2/8/2020 18:03:59.888",-0.48,0.949,1.195,2020-02-08 18:03:59.888
"2/8/2020 18:03:59.900",-0.793,0.805,1.27,2020-02-08 18:03:59.900
"2/8/2020 18:03:59.913",-1.145,0.605,1.246,2020-02-08 18:03:59.913
"2/8/2020 18:03:59.925",-1.652,0.434,1.086,2020-02-08 18:03:59.924
"2/8/2020 18:03:59.938",-2.07,0.441,0.906,2020-02-08 18:03:59.937
"2/8/2020 18:03:59.950",-1.965,0.715,0.566,2020-02-08 18:03:59.950
"2/8/2020 18:03:59.963",-1.234,0.988,-0.09,2020-02-08 18:03:59.963
"2/8/2020 18:03:59.975",-0.309,1.16,-0.711,2020-02-08 18:03:59.974
"2/8/2020 18:03:59.988",0.32,1.148,-0.977,2020-02-08 18:03:59.987
"2/8/2020 18:04:00.000",0.32,0.953,-0.875,2020-02-08 18:04:00.000
"2/8/2020 18:04:00.013",0.035,0.801,-0.617,2020-02-08 18:04:00.013
"2/8/2020 18:04:00.025",-0.258,0.711,-0.469,2020-02-08 18:04:00.025
"2/8/2020 18:04:00.038",-0.391,0.75,-0.387,2020-02-08 18:04:00.038
"2/8/2020 18:04:00.050",-0.457,0.875,-0.336,2020-02-08 18:04:00.049
"2/8/2020 18:04:00.063",-0.543,0.953,-0.277,2020-02-08 18:04:00.062
"2/8/2020 18:04:00.075",-0.57,0.922,-0.242,2020-02-08 18:04:00.075
"2/8/2020 18:04:00.088",-0.531,0.887,-0.258,2020-02-08 18:04:00.088
"2/8/2020 18:04:00.100",-0.41,0.852,-0.285,2020-02-08 18:04:00.099
"2/8/2020 18:04:00.113",-0.266,0.898,-0.309,2020-02-08 18:04:00.112
"2/8/2020 18:04:00.125",-0.164,0.93,-0.316,2020-02-08 18:04:00.125
"2/8/2020 18:04:00.138",-0.145,0.953,-0.32,2020-02-08 18:04:00.138
"2/8/2020 18:04:00.150",-0.191,0.922,-0.32,2020-02-08 18:04:00.150
"2/8/2020 18:04:00.163",-0.223,0.906,-0.313,2020-02-08 18:04:00.163
"2/8/2020 18:04:00.175",-0.262,0.914,-0.301,2020-02-08 18:04:00.174
"2/8/2020 18:04:00.188",-0.25,0.902,-0.246,2020-02-08 18:04:00.187
"2/8/2020 18:04:00.200",-0.227,0.906,-0.195,2020-02-08 18:04:00.200
"2/8/2020 18:04:00.213",-0.168,0.918,-0.125,2020-02-08 18:04:00.213
"2/8/2020 18:04:00.225",-0.133,0.953,-0.113,2020-02-08 18:04:00.224
"2/8/2020 18:04:00.238",-0.102,1.023,-0.141,2020-02-08 18:04:00.237
"2/8/2020 18:04:00.250",-0.105,1.043,-0.156,2020-02-08 18:04:00.250
"2/8/2020 18:04:00.263",-0.133,0.98,-0.121,2020-02-08 18:04:00.263
"2/8/2020 18:04:00.275",-0.117,0.93,-0.102,2020-02-08 18:04:00.275
"2/8/2020 18:04:00.288",-0.121,0.938,-0.129,2020-02-08 18:04:00.288
"2/8/2020 18:04:00.300",-0.109,0.973,-0.137,2020-02-08 18:04:00.299
"2/8/2020 18:04:00.313",-0.125,0.965,-0.109,2020-02-08 18:04:00.312
"2/8/2020 18:04:00.325",-0.121,1.004,-0.121,2020-02-08 18:04:00.325
"2/8/2020 18:04:00.338",-0.133,1.016,-0.109,2020-02-08 18:04:00.338
"2/8/2020 18:04:00.350",-0.18,0.938,-0.027,2020-02-08 18:04:00.349
"2/8/2020 18:04:00.363",-0.273,0.895,0.098,2020-02-08 18:04:00.362
"2/8/2020 18:04:00.375",-0.383,0.926,0.16,2020-02-08 18:04:00.375
"2/8/2020 18:04:00.388",-0.453,0.922,0.23,2020-02-08 18:04:00.388
"2/8/2020 18:04:00.400",-0.477,0.871,0.25,2020-02-08 18:04:00.400
"2/8/2020 18:04:00.413",-0.449,0.883,0.148,2020-02-08 18:04:00.413
"2/8/2020 18:04:00.425",-0.387,0.898,0.008,2020-02-08 18:04:00.424
"2/8/2020 18:04:00.438",-0.309,0.898,-0.043,2020-02-08 18:04:00.437
"2/8/2020 18:04:00.450",-0.293,0.895,-0.039,2020-02-08 18:04:00.450
"2/8/2020 18:04:00.463",-0.348,0.895,-0.043,2020-02-08 18:04:00.463
"2/8/2020 18:04:00.475",-0.395,0.895,-0.039,2020-02-08 18:04:00.474
"2/8/2020 18:04:00.488",-0.387,0.891,-0.043,2020-02-08 18:04:00.487
"2/8/2020 18:04:00.500",-0.363,0.891,-0.031,2020-02-08 18:04:00.500
"2/8/2020 18:04:00.513",-0.332,0.895,-0.023,2020-02-08 18:04:00.513
"2/8/2020 18:04:00.525",-0.328,0.895,-0.031,2020-02-08 18:04:00.525
"2/8/2020 18:04:00.538",-0.305,0.902,-0.016,2020-02-08 18:04:00.538
"2/8/2020 18:04:00.550",-0.23,0.918,0.008,2020-02-08 18:04:00.549
"2/8/2020 18:04:00.563",-0.094,0.953,0.047,2020-02-08 18:04:00.562
"2/8/2020 18:04:00.575",-0.035,1,0,2020-02-08 18:04:00.575
"2/8/2020 18:04:00.588",-0.066,1.008,-0.074,2020-02-08 18:04:00.588
"2/8/2020 18:04:00.600",-0.098,0.984,-0.156,2020-02-08 18:04:00.599
"2/8/2020 18:04:00.613",-0.105,0.945,-0.188,2020-02-08 18:04:00.612
"2/8/2020 18:04:00.625",-0.109,0.91,-0.117,2020-02-08 18:04:00.625
"2/8/2020 18:04:00.638",-0.145,0.918,-0.145,2020-02-08 18:04:00.638
"2/8/2020 18:04:00.650",-0.223,0.91,-0.191,2020-02-08 18:04:00.650
"2/8/2020 18:04:00.663",-0.316,0.855,-0.211,2020-02-08 18:04:00.663
"2/8/2020 18:04:00.675",-0.363,0.832,-0.266,2020-02-08 18:04:00.674
"2/8/2020 18:04:00.688",-0.395,0.789,-0.289,2020-02-08 18:04:00.687
"2/8/2020 18:04:00.700",-0.484,0.746,-0.258,2020-02-08 18:04:00.700
"2/8/2020 18:04:00.713",-0.543,0.719,-0.398,2020-02-08 18:04:00.713
"2/8/2020 18:04:00.725",-0.535,0.695,-0.555,2020-02-08 18:04:00.724
"2/8/2020 18:04:00.738",-0.43,0.699,-0.617,2020-02-08 18:04:00.737
"2/8/2020 18:04:00.750",-0.379,0.691,-0.625,2020-02-08 18:04:00.750
"2/8/2020 18:04:00.763",-0.457,0.672,-0.609,2020-02-08 18:04:00.763
"2/8/2020 18:04:00.775",-0.516,0.66,-0.559,2020-02-08 18:04:00.775
"2/8/2020 18:04:00.788",-0.602,0.656,-0.512,2020-02-08 18:04:00.788
"2/8/2020 18:04:00.800",-0.676,0.613,-0.496,2020-02-08 18:04:00.799
"2/8/2020 18:04:00.813",-0.746,0.586,-0.5,2020-02-08 18:04:00.812
"2/8/2020 18:04:00.825",-0.797,0.578,-0.496,2020-02-08 18:04:00.825
"2/8/2020 18:04:00.838",-0.84,0.598,-0.422,2020-02-08 18:04:00.838
"2/8/2020 18:04:00.850",-0.965,0.633,-0.309,2020-02-08 18:04:00.849
"2/8/2020 18:04:00.863",-1.301,0.648,-0.121,2020-02-08 18:04:00.862
"2/8/2020 18:04:00.875",-1.836,0.574,0.27,2020-02-08 18:04:00.875
"2/8/2020 18:04:00.888",-2.488,0.734,0.789,2020-02-08 18:04:00.888
"2/8/2020 18:04:00.900",-2.531,1.676,0.859,2020-02-08 18:04:00.900
"2/8/2020 18:04:00.913",-1.848,2.453,0.828,2020-02-08 18:04:00.913
"2/8/2020 18:04:00.925",-1.035,2.844,0.738,2020-02-08 18:04:00.924
"2/8/2020 18:04:00.938",-0.547,2.992,0.734,2020-02-08 18:04:00.937
"2/8/2020 18:04:00.950",-0.414,2.742,0.887,2020-02-08 18:04:00.950
"2/8/2020 18:04:00.963",-0.367,2.238,1.227,2020-02-08 18:04:00.963
"2/8/2020 18:04:00.975",-0.227,1.668,1.395,2020-02-08 18:04:00.974
"2/8/2020 18:04:00.988",-0.301,1.285,1.012,2020-02-08 18:04:00.987
"2/8/2020 18:04:01.000",-0.063,0.84,0.625,2020-02-08 18:04:01.000
"2/8/2020 18:04:01.013",0.387,0.699,0.617,2020-02-08 18:04:01.013
"2/8/2020 18:04:01.025",0.551,0.766,0.332,2020-02-08 18:04:01.025
"2/8/2020 18:04:01.038",0.609,0.781,0.234,2020-02-08 18:04:01.038
"2/8/2020 18:04:01.050",0.652,0.813,0.234,2020-02-08 18:04:01.049
"2/8/2020 18:04:01.063",0.566,0.738,0.242,2020-02-08 18:04:01.062
"2/8/2020 18:04:01.075",0.418,0.688,0.285,2020-02-08 18:04:01.075
"2/8/2020 18:04:01.088",0.219,0.75,0.352,2020-02-08 18:04:01.088
"2/8/2020 18:04:01.100",0.035,0.867,0.379,2020-02-08 18:04:01.099
"2/8/2020 18:04:01.113",-0.176,1.031,0.332,2020-02-08 18:04:01.112
"2/8/2020 18:04:01.125",-0.289,1.203,0.27,2020-02-08 18:04:01.125
"2/8/2020 18:04:01.138",-0.48,1.398,0.258,2020-02-08 18:04:01.138
"2/8/2020 18:04:01.150",-0.766,1.516,0.152,2020-02-08 18:04:01.150
"2/8/2020 18:04:01.163",-0.867,1.594,-0.016,2020-02-08 18:04:01.163
"2/8/2020 18:04:01.175",-0.738,1.68,-0.199,2020-02-08 18:04:01.174
"2/8/2020 18:04:01.188",-0.512,1.816,-0.336,2020-02-08 18:04:01.187
"2/8/2020 18:04:01.200",-0.324,2.008,-0.449,2020-02-08 18:04:01.200
"2/8/2020 18:04:01.213",-0.258,2.254,-0.621,2020-02-08 18:04:01.213
"2/8/2020 18:04:01.225",-0.293,2.293,-0.871,2020-02-08 18:04:01.224
"2/8/2020 18:04:01.238",-0.324,2.078,-0.98,2020-02-08 18:04:01.237
"2/8/2020 18:04:01.250",-0.25,1.793,-0.98,2020-02-08 18:04:01.250
"2/8/2020 18:04:01.263",-0.18,1.625,-1.07,2020-02-08 18:04:01.263
"2/8/2020 18:04:01.275",-0.137,1.504,-1.211,2020-02-08 18:04:01.275
"2/8/2020 18:04:01.288",0.039,1.461,-1.199,2020-02-08 18:04:01.288
"2/8/2020 18:04:01.300",0.223,1.465,-1.152,2020-02-08 18:04:01.299
"2/8/2020 18:04:01.313",0.313,1.383,-1.172,2020-02-08 18:04:01.312
"2/8/2020 18:04:01.325",0.344,1.137,-1.156,2020-02-08 18:04:01.325
"2/8/2020 18:04:01.338",0.379,0.832,-1.023,2020-02-08 18:04:01.338
"2/8/2020 18:04:01.350",0.402,0.672,-0.852,2020-02-08 18:04:01.349
"2/8/2020 18:04:01.363",0.262,0.598,-0.84,2020-02-08 18:04:01.362
"2/8/2020 18:04:01.375",-0.148,0.598,-0.836,2020-02-08 18:04:01.375
"2/8/2020 18:04:01.388",-1.16,0.836,-0.832,2020-02-08 18:04:01.388
"2/8/2020 18:04:01.400",-2.664,0.762,-0.586,2020-02-08 18:04:01.400
"2/8/2020 18:04:01.413",-2.598,0.613,-0.117,2020-02-08 18:04:01.413
"2/8/2020 18:04:01.425",-1.977,0.473,0.586,2020-02-08 18:04:01.424
"2/8/2020 18:04:01.438",-1.242,0.605,0.496,2020-02-08 18:04:01.437
"2/8/2020 18:04:01.450",-0.609,0.633,0.426,2020-02-08 18:04:01.450
"2/8/2020 18:04:01.463",-0.227,0.742,0.715,2020-02-08 18:04:01.463
"2/8/2020 18:04:01.475",-0.238,0.766,0.809,2020-02-08 18:04:01.474
"2/8/2020 18:04:01.488",-0.328,0.824,0.766,2020-02-08 18:04:01.487
"2/8/2020 18:04:01.500",-0.215,1.035,0.688,2020-02-08 18:04:01.500
"2/8/2020 18:04:01.513",-0.07,1.086,0.633,2020-02-08 18:04:01.513
"2/8/2020 18:04:01.525",-0.035,1.078,0.586,2020-02-08 18:04:01.525
"2/8/2020 18:04:01.538",-0.07,1.047,0.496,2020-02-08 18:04:01.538
"2/8/2020 18:04:01.550",-0.145,0.98,0.398,2020-02-08 18:04:01.549
"2/8/2020 18:04:01.563",-0.234,0.934,0.309,2020-02-08 18:04:01.562
"2/8/2020 18:04:01.575",-0.316,0.914,0.285,2020-02-08 18:04:01.575
"2/8/2020 18:04:01.588",-0.355,0.898,0.332,2020-02-08 18:04:01.588
"2/8/2020 18:04:01.600",-0.387,0.906,0.402,2020-02-08 18:04:01.599
"2/8/2020 18:04:01.613",-0.426,0.895,0.426,2020-02-08 18:04:01.612
"2/8/2020 18:04:01.625",-0.457,0.902,0.41,2020-02-08 18:04:01.625
"2/8/2020 18:04:01.638",-0.441,0.914,0.34,2020-02-08 18:04:01.638
"2/8/2020 18:04:01.650",-0.387,0.938,0.238,2020-02-08 18:04:01.650
"2/8/2020 18:04:01.663",-0.32,0.988,0.109,2020-02-08 18:04:01.663
"2/8/2020 18:04:01.675",-0.27,1.027,-0.051,2020-02-08 18:04:01.674
"2/8/2020 18:04:01.688",-0.199,1.043,-0.18,2020-02-08 18:04:01.687
"2/8/2020 18:04:01.700",-0.109,1.023,-0.262,2020-02-08 18:04:01.700
"2/8/2020 18:04:01.713",0.004,0.957,-0.25,2020-02-08 18:04:01.713
"2/8/2020 18:04:01.725",0.363,0.953,-0.223,2020-02-08 18:04:01.724
"2/8/2020 18:04:01.738",0.699,0.965,-0.309,2020-02-08 18:04:01.737
"2/8/2020 18:04:01.750",0.832,0.895,-0.234,2020-02-08 18:04:01.750
"2/8/2020 18:04:01.763",0.785,0.977,0.035,2020-02-08 18:04:01.763
"2/8/2020 18:04:01.775",0.652,1.16,0.219,2020-02-08 18:04:01.775
"2/8/2020 18:04:01.788",0.602,1.305,0.309,2020-02-08 18:04:01.788
"2/8/2020 18:04:01.800",0.52,1.355,0.422,2020-02-08 18:04:01.799
"2/8/2020 18:04:01.813",0.25,1.316,0.535,2020-02-08 18:04:01.812
"2/8/2020 18:04:01.825",-0.023,1.281,0.633,2020-02-08 18:04:01.825
"2/8/2020 18:04:01.838",-0.363,1.23,0.699,2020-02-08 18:04:01.838
"2/8/2020 18:04:01.850",-0.633,1.18,0.664,2020-02-08 18:04:01.849
"2/8/2020 18:04:01.863",-0.781,1.125,0.539,2020-02-08 18:04:01.862
"2/8/2020 18:04:01.875",-0.859,1.016,0.43,2020-02-08 18:04:01.875
"2/8/2020 18:04:01.888",-0.82,0.879,0.363,2020-02-08 18:04:01.888
"2/8/2020 18:04:01.900",-0.727,0.84,0.199,2020-02-08 18:04:01.900
"2/8/2020 18:04:01.913",-0.508,0.793,0.004,2020-02-08 18:04:01.913
"2/8/2020 18:04:01.925",0.16,0.727,0.098,2020-02-08 18:04:01.924
"2/8/2020 18:04:01.938",0.582,0.66,0.313,2020-02-08 18:04:01.937
"2/8/2020 18:04:01.950",0.691,0.48,0.539,2020-02-08 18:04:01.950
"2/8/2020 18:04:01.963",0.957,0.223,0.953,2020-02-08 18:04:01.963
"2/8/2020 18:04:01.975",1.039,0.105,1.219,2020-02-08 18:04:01.974
"2/8/2020 18:04:01.988",-0.082,0.105,0.57,2020-02-08 18:04:01.987
"2/8/2020 18:04:02.000",-1.406,0.309,-0.133,2020-02-08 18:04:02.000
"2/8/2020 18:04:02.013",-3.449,3.648,-0.691,2020-02-08 18:04:02.013
"2/8/2020 18:04:02.025",0.707,4.445,1.512,2020-02-08 18:04:02.025
"2/8/2020 18:04:02.038",1.047,1.977,0.145,2020-02-08 18:04:02.038
"2/8/2020 18:04:02.050",-0.27,-0.172,-0.73,2020-02-08 18:04:02.049
"2/8/2020 18:04:02.063",-0.555,-0.066,-0.637,2020-02-08 18:04:02.062
"2/8/2020 18:04:02.075",-0.059,0.621,-0.457,2020-02-08 18:04:02.075
"2/8/2020 18:04:02.088",-0.09,1.125,-0.301,2020-02-08 18:04:02.088
"2/8/2020 18:04:02.100",-0.641,1.086,-0.289,2020-02-08 18:04:02.099
"2/8/2020 18:04:02.113",-0.664,0.918,-0.313,2020-02-08 18:04:02.112
"2/8/2020 18:04:02.125",-0.453,0.891,-0.316,2020-02-08 18:04:02.125
"2/8/2020 18:04:02.138",-0.336,0.918,-0.281,2020-02-08 18:04:02.138
"2/8/2020 18:04:02.150",-0.383,0.891,-0.313,2020-02-08 18:04:02.150
"2/8/2020 18:04:02.163",-0.395,0.82,-0.449,2020-02-08 18:04:02.163
"2/8/2020 18:04:02.175",-0.383,0.789,-0.563,2020-02-08 18:04:02.174
"2/8/2020 18:04:02.188",-0.309,0.816,-0.605,2020-02-08 18:04:02.187
"2/8/2020 18:04:02.200",-0.23,0.805,-0.645,2020-02-08 18:04:02.200
"2/8/2020 18:04:02.213",-0.164,0.816,-0.641,2020-02-08 18:04:02.213
"2/8/2020 18:04:02.225",-0.18,0.82,-0.586,2020-02-08 18:04:02.224
"2/8/2020 18:04:02.238",-0.234,0.844,-0.492,2020-02-08 18:04:02.237
"2/8/2020 18:04:02.250",-0.316,0.863,-0.441,2020-02-08 18:04:02.250
"2/8/2020 18:04:02.263",-0.34,0.875,-0.434,2020-02-08 18:04:02.263
"2/8/2020 18:04:02.275",-0.285,0.863,-0.457,2020-02-08 18:04:02.275
"2/8/2020 18:04:02.288",-0.227,0.848,-0.461,2020-02-08 18:04:02.288
"2/8/2020 18:04:02.300",-0.195,0.848,-0.438,2020-02-08 18:04:02.299
"2/8/2020 18:04:02.313",-0.184,0.867,-0.418,2020-02-08 18:04:02.312
"2/8/2020 18:04:02.325",-0.219,0.855,-0.395,2020-02-08 18:04:02.325
"2/8/2020 18:04:02.338",-0.223,0.863,-0.344,2020-02-08 18:04:02.338
"2/8/2020 18:04:02.350",-0.18,0.898,-0.328,2020-02-08 18:04:02.349
"2/8/2020 18:04:02.363",-0.168,0.914,-0.301,2020-02-08 18:04:02.362
"2/8/2020 18:04:02.375",-0.168,0.91,-0.242,2020-02-08 18:04:02.375
"2/8/2020 18:04:02.388",-0.156,0.938,-0.23,2020-02-08 18:04:02.388
"2/8/2020 18:04:02.400",-0.156,0.945,-0.242,2020-02-08 18:04:02.400
"2/8/2020 18:04:02.413",-0.172,0.926,-0.246,2020-02-08 18:04:02.413
"2/8/2020 18:04:02.425",-0.164,0.926,-0.242,2020-02-08 18:04:02.424
"2/8/2020 18:04:02.438",-0.156,0.934,-0.234,2020-02-08 18:04:02.437
"2/8/2020 18:04:02.450",-0.152,0.941,-0.207,2020-02-08 18:04:02.450
"2/8/2020 18:04:02.463",-0.172,0.957,-0.176,2020-02-08 18:04:02.463
"2/8/2020 18:04:02.475",-0.191,0.965,-0.16,2020-02-08 18:04:02.474
"2/8/2020 18:04:02.488",-0.199,0.961,-0.125,2020-02-08 18:04:02.487
"2/8/2020 18:04:02.500",-0.199,0.973,-0.102,2020-02-08 18:04:02.500
"2/8/2020 18:04:02.513",-0.16,0.977,-0.094,2020-02-08 18:04:02.513
"2/8/2020 18:04:02.525",-0.129,0.98,-0.086,2020-02-08 18:04:02.525
"2/8/2020 18:04:02.538",-0.152,0.969,-0.094,2020-02-08 18:04:02.538
"2/8/2020 18:04:02.550",-0.18,0.957,-0.098,2020-02-08 18:04:02.549
"2/8/2020 18:04:02.563",-0.176,0.965,-0.105,2020-02-08 18:04:02.562
"2/8/2020 18:04:02.575",-0.141,0.988,-0.117,2020-02-08 18:04:02.575
"2/8/2020 18:04:02.588",-0.141,0.996,-0.125,2020-02-08 18:04:02.588
"2/8/2020 18:04:02.600",-0.188,0.988,-0.109,2020-02-08 18:04:02.599
"2/8/2020 18:04:02.613",-0.242,0.969,-0.082,2020-02-08 18:04:02.612
"2/8/2020 18:04:02.625",-0.266,0.945,-0.035,2020-02-08 18:04:02.625
"2/8/2020 18:04:02.638",-0.285,0.93,0.012,2020-02-08 18:04:02.638
"2/8/2020 18:04:02.650",-0.305,0.93,0.039,2020-02-08 18:04:02.650
"2/8/2020 18:04:02.663",-0.344,0.93,0.047,2020-02-08 18:04:02.663
"2/8/2020 18:04:02.675",-0.383,0.918,0.039,2020-02-08 18:04:02.674
"2/8/2020 18:04:02.688",-0.387,0.902,-0.02,2020-02-08 18:04:02.687
"2/8/2020 18:04:02.700",-0.344,0.895,-0.078,2020-02-08 18:04:02.700
"2/8/2020 18:04:02.713",-0.305,0.883,-0.098,2020-02-08 18:04:02.713
"2/8/2020 18:04:02.725",-0.305,0.871,-0.109,2020-02-08 18:04:02.724
"2/8/2020 18:04:02.738",-0.332,0.875,-0.121,2020-02-08 18:04:02.737
"2/8/2020 18:04:02.750",-0.344,0.871,-0.117,2020-02-08 18:04:02.750
"2/8/2020 18:04:02.763",-0.313,0.891,-0.094,2020-02-08 18:04:02.763
"2/8/2020 18:04:02.775",-0.289,0.926,-0.086,2020-02-08 18:04:02.775
"2/8/2020 18:04:02.788",-0.266,0.953,-0.07,2020-02-08 18:04:02.788
"2/8/2020 18:04:02.800",-0.254,0.965,-0.059,2020-02-08 18:04:02.799
"2/8/2020 18:04:02.813",-0.25,0.953,-0.027,2020-02-08 18:04:02.812
"2/8/2020 18:04:02.825",-0.27,0.938,-0.027,2020-02-08 18:04:02.825
"2/8/2020 18:04:02.838",-0.27,0.934,-0.027,2020-02-08 18:04:02.838
"2/8/2020 18:04:02.850",-0.25,0.938,-0.039,2020-02-08 18:04:02.849
"2/8/2020 18:04:02.863",-0.262,0.941,-0.063,2020-02-08 18:04:02.862
"2/8/2020 18:04:02.875",-0.25,0.926,-0.063,2020-02-08 18:04:02.875
"2/8/2020 18:04:02.888",-0.23,0.918,-0.047,2020-02-08 18:04:02.888
"2/8/2020 18:04:02.900",-0.211,0.93,-0.039,2020-02-08 18:04:02.900
"2/8/2020 18:04:02.913",-0.188,0.961,-0.047,2020-02-08 18:04:02.913
"2/8/2020 18:04:02.925",-0.152,0.984,-0.055,2020-02-08 18:04:02.924
"2/8/2020 18:04:02.938",-0.133,0.996,-0.078,2020-02-08 18:04:02.937
"2/8/2020 18:04:02.950",-0.148,0.98,-0.102,2020-02-08 18:04:02.950
"2/8/2020 18:04:02.963",-0.141,0.969,-0.129,2020-02-08 18:04:02.963
"2/8/2020 18:04:02.975",-0.137,0.965,-0.164,2020-02-08 18:04:02.974
"2/8/2020 18:04:02.988",-0.121,0.965,-0.18,2020-02-08 18:04:02.987
"2/8/2020 18:04:03.000",-0.141,0.965,-0.188,2020-02-08 18:04:03.000
"2/8/2020 18:04:03.013",-0.172,0.961,-0.176,2020-02-08 18:04:03.013
"2/8/2020 18:04:03.025",-0.215,0.961,-0.168,2020-02-08 18:04:03.025
"2/8/2020 18:04:03.038",-0.25,0.953,-0.152,2020-02-08 18:04:03.038
"2/8/2020 18:04:03.050",-0.254,0.934,-0.148,2020-02-08 18:04:03.049
"2/8/2020 18:04:03.063",-0.266,0.922,-0.145,2020-02-08 18:04:03.062
"2/8/2020 18:04:03.075",-0.281,0.918,-0.133,2020-02-08 18:04:03.075
"2/8/2020 18:04:03.088",-0.258,0.922,-0.133,2020-02-08 18:04:03.088
"2/8/2020 18:04:03.100",-0.242,0.922,-0.137,2020-02-08 18:04:03.099
"2/8/2020 18:04:03.113",-0.234,0.93,-0.133,2020-02-08 18:04:03.112
"2/8/2020 18:04:03.125",-0.23,0.938,-0.133,2020-02-08 18:04:03.125
"2/8/2020 18:04:03.138",-0.238,0.957,-0.121,2020-02-08 18:04:03.138
"2/8/2020 18:04:03.150",-0.258,0.945,-0.102,2020-02-08 18:04:03.150
"2/8/2020 18:04:03.163",-0.23,0.926,-0.078,2020-02-08 18:04:03.163
"2/8/2020 18:04:03.175",-0.191,0.926,-0.102,2020-02-08 18:04:03.174
"2/8/2020 18:04:03.188",-0.129,0.961,-0.09,2020-02-08 18:04:03.187
"2/8/2020 18:04:03.200",-0.168,0.992,-0.145,2020-02-08 18:04:03.200
"2/8/2020 18:04:03.213",-0.258,1.051,-0.156,2020-02-08 18:04:03.213
"2/8/2020 18:04:03.225",-0.305,1.117,-0.168,2020-02-08 18:04:03.224
"2/8/2020 18:04:03.238",-0.309,1.203,-0.109,2020-02-08 18:04:03.237
"2/8/2020 18:04:03.250",-0.324,1.172,-0.035,2020-02-08 18:04:03.250
"2/8/2020 18:04:03.263",-0.324,1.141,0.023,2020-02-08 18:04:03.263
"2/8/2020 18:04:03.275",-0.34,1.156,0.07,2020-02-08 18:04:03.275
"2/8/2020 18:04:03.288",-0.371,1.188,0.16,2020-02-08 18:04:03.288
"2/8/2020 18:04:03.300",-0.465,1.227,0.223,2020-02-08 18:04:03.299
"2/8/2020 18:04:03.313",-0.668,1.145,0.289,2020-02-08 18:04:03.312
"2/8/2020 18:04:03.325",-0.859,0.977,0.313,2020-02-08 18:04:03.325
"2/8/2020 18:04:03.338",-0.977,0.809,0.297,2020-02-08 18:04:03.338
"2/8/2020 18:04:03.350",-0.934,0.711,0.25,2020-02-08 18:04:03.349
"2/8/2020 18:04:03.363",-0.82,0.645,0.199,2020-02-08 18:04:03.362
"2/8/2020 18:04:03.375",-0.793,0.648,0.066,2020-02-08 18:04:03.375
"2/8/2020 18:04:03.388",-0.773,0.652,-0.098,2020-02-08 18:04:03.388
"2/8/2020 18:04:03.400",-0.633,0.645,-0.02,2020-02-08 18:04:03.400
"2/8/2020 18:04:03.413",-0.617,0.617,0.137,2020-02-08 18:04:03.413
"2/8/2020 18:04:03.425",-0.73,0.508,0.266,2020-02-08 18:04:03.424
"2/8/2020 18:04:03.438",-0.801,0.422,0.367,2020-02-08 18:04:03.437
"2/8/2020 18:04:03.450",-0.766,0.367,0.41,2020-02-08 18:04:03.450
"2/8/2020 18:04:03.463",-0.676,0.293,0.473,2020-02-08 18:04:03.463
"2/8/2020 18:04:03.475",-0.59,0.223,0.516,2020-02-08 18:04:03.474
"2/8/2020 18:04:03.488",-0.512,0.164,0.535,2020-02-08 18:04:03.487
"2/8/2020 18:04:03.500",-0.406,0.156,0.523,2020-02-08 18:04:03.500
"2/8/2020 18:04:03.513",-0.293,0.191,0.492,2020-02-08 18:04:03.513
"2/8/2020 18:04:03.525",-0.219,0.238,0.449,2020-02-08 18:04:03.525
"2/8/2020 18:04:03.538",-0.195,0.273,0.41,2020-02-08 18:04:03.538
"2/8/2020 18:04:03.550",-0.184,0.336,0.367,2020-02-08 18:04:03.549
"2/8/2020 18:04:03.563",-0.203,0.41,0.301,2020-02-08 18:04:03.562
"2/8/2020 18:04:03.575",-0.223,0.516,0.23,2020-02-08 18:04:03.575
"2/8/2020 18:04:03.588",-0.242,0.664,0.168,2020-02-08 18:04:03.588
"2/8/2020 18:04:03.600",-0.301,0.828,0.074,2020-02-08 18:04:03.599
"2/8/2020 18:04:03.613",-0.375,1.02,-0.039,2020-02-08 18:04:03.612
"2/8/2020 18:04:03.625",-0.441,1.211,-0.148,2020-02-08 18:04:03.625
"2/8/2020 18:04:03.638",-0.496,1.254,-0.305,2020-02-08 18:04:03.638
"2/8/2020 18:04:03.650",-0.504,1.25,-0.477,2020-02-08 18:04:03.650
"2/8/2020 18:04:03.663",-0.5,1.223,-0.629,2020-02-08 18:04:03.663
"2/8/2020 18:04:03.675",-0.5,1.207,-0.754,2020-02-08 18:04:03.674
"2/8/2020 18:04:03.688",-0.539,1.168,-0.828,2020-02-08 18:04:03.687
"2/8/2020 18:04:03.700",-0.633,1.129,-0.859,2020-02-08 18:04:03.700
"2/8/2020 18:04:03.713",-0.699,1.098,-0.879,2020-02-08 18:04:03.713
"2/8/2020 18:04:03.725",-0.742,1.063,-0.742,2020-02-08 18:04:03.724
"2/8/2020 18:04:03.738",-0.789,0.969,0.379,2020-02-08 18:04:03.737
"2/8/2020 18:04:03.750",-0.496,2.203,2.758,2020-02-08 18:04:03.750
"2/8/2020 18:04:03.763",0.742,2.949,2.082,2020-02-08 18:04:03.763
"2/8/2020 18:04:03.775",1.063,1.383,0.555,2020-02-08 18:04:03.775
"2/8/2020 18:04:03.788",0.254,0.422,-0.477,2020-02-08 18:04:03.788
"2/8/2020 18:04:03.800",-0.879,0.332,-0.828,2020-02-08 18:04:03.799
"2/8/2020 18:04:03.813",-1.172,0.629,-0.34,2020-02-08 18:04:03.812
"2/8/2020 18:04:03.825",-0.516,1.043,-0.059,2020-02-08 18:04:03.825
"2/8/2020 18:04:03.838",0.098,1.25,-0.176,2020-02-08 18:04:03.838
"2/8/2020 18:04:03.850",-0.039,1.031,-0.129,2020-02-08 18:04:03.849
"2/8/2020 18:04:03.863",-0.41,0.813,-0.07,2020-02-08 18:04:03.862
"2/8/2020 18:04:03.875",-0.602,0.676,-0.262,2020-02-08 18:04:03.875
"2/8/2020 18:04:03.888",-0.555,0.77,-0.297,2020-02-08 18:04:03.888
"2/8/2020 18:04:03.900",-0.332,0.895,-0.191,2020-02-08 18:04:03.900
"2/8/2020 18:04:03.913",-0.238,0.941,-0.066,2020-02-08 18:04:03.913
"2/8/2020 18:04:03.925",-0.125,0.973,-0.043,2020-02-08 18:04:03.924
"2/8/2020 18:04:03.938",-0.137,0.98,-0.098,2020-02-08 18:04:03.937
"2/8/2020 18:04:03.950",-0.18,0.961,-0.141,2020-02-08 18:04:03.950
"2/8/2020 18:04:03.963",-0.309,0.918,-0.148,2020-02-08 18:04:03.963
"2/8/2020 18:04:03.975",-0.383,0.879,-0.129,2020-02-08 18:04:03.974
"2/8/2020 18:04:03.988",-0.383,0.863,-0.156,2020-02-08 18:04:03.987
"2/8/2020 18:04:04.000",-0.363,0.871,-0.215,2020-02-08 18:04:04.000
"2/8/2020 18:04:04.013",-0.293,0.895,-0.246,2020-02-08 18:04:04.013
"2/8/2020 18:04:04.025",-0.27,0.914,-0.246,2020-02-08 18:04:04.025
"2/8/2020 18:04:04.038",-0.332,0.922,-0.258,2020-02-08 18:04:04.038
"2/8/2020 18:04:04.050",-0.391,0.895,-0.262,2020-02-08 18:04:04.049
"2/8/2020 18:04:04.063",-0.34,0.879,-0.277,2020-02-08 18:04:04.062
"2/8/2020 18:04:04.075",-0.309,0.891,-0.305,2020-02-08 18:04:04.075
"2/8/2020 18:04:04.088",-0.316,0.91,-0.289,2020-02-08 18:04:04.088
"2/8/2020 18:04:04.100",-0.371,0.902,-0.246,2020-02-08 18:04:04.099
"2/8/2020 18:04:04.113",-0.434,0.914,-0.23,2020-02-08 18:04:04.112
"2/8/2020 18:04:04.125",-0.457,0.93,-0.215,2020-02-08 18:04:04.125
"2/8/2020 18:04:04.138",-0.395,0.938,-0.188,2020-02-08 18:04:04.138
"2/8/2020 18:04:04.150",-0.316,0.934,-0.164,2020-02-08 18:04:04.150
"2/8/2020 18:04:04.163",-0.336,0.906,-0.164,2020-02-08 18:04:04.163
"2/8/2020 18:04:04.175",-0.336,0.898,-0.16,2020-02-08 18:04:04.174
"2/8/2020 18:04:04.188",-0.277,0.934,-0.121,2020-02-08 18:04:04.187
"2/8/2020 18:04:04.200",-0.238,0.98,-0.043,2020-02-08 18:04:04.200
"2/8/2020 18:04:04.213",-0.266,0.992,0.094,2020-02-08 18:04:04.213
"2/8/2020 18:04:04.225",-0.383,1,0.254,2020-02-08 18:04:04.224
"2/8/2020 18:04:04.238",-0.598,1.063,0.406,2020-02-08 18:04:04.237
"2/8/2020 18:04:04.250",-0.637,1.207,0.328,2020-02-08 18:04:04.250
"2/8/2020 18:04:04.263",-0.445,1.227,0.211,2020-02-08 18:04:04.263
"2/8/2020 18:04:04.275",-0.172,1.254,0.098,2020-02-08 18:04:04.275
"2/8/2020 18:04:04.288",-0.031,1.289,0.133,2020-02-08 18:04:04.288
"2/8/2020 18:04:04.300",-0.082,1.301,0.336,2020-02-08 18:04:04.299
"2/8/2020 18:04:04.313",-0.273,1.215,0.688,2020-02-08 18:04:04.312
"2/8/2020 18:04:04.325",-0.469,1.094,0.996,2020-02-08 18:04:04.325
"2/8/2020 18:04:04.338",-0.582,0.977,1.277,2020-02-08 18:04:04.338
"2/8/2020 18:04:04.350",-0.531,0.82,1.313,2020-02-08 18:04:04.349
"2/8/2020 18:04:04.363",-0.359,0.664,0.996,2020-02-08 18:04:04.362
"2/8/2020 18:04:04.375",-0.438,0.77,0.227,2020-02-08 18:04:04.375
"2/8/2020 18:04:04.388",-1.254,1.285,-0.938,2020-02-08 18:04:04.388
"2/8/2020 18:04:04.400",-1.922,1.629,-1.707,2020-02-08 18:04:04.400
"2/8/2020 18:04:04.413",-1.785,1.684,-1.84,2020-02-08 18:04:04.413
"2/8/2020 18:04:04.425",-1.133,1.465,-1.813,2020-02-08 18:04:04.424
"2/8/2020 18:04:04.438",-0.605,1.25,-1.664,2020-02-08 18:04:04.437
"2/8/2020 18:04:04.450",-0.434,1.098,-1.426,2020-02-08 18:04:04.450
"2/8/2020 18:04:04.463",-0.363,0.961,-1.219,2020-02-08 18:04:04.463
"2/8/2020 18:04:04.475",-0.336,0.852,-1.008,2020-02-08 18:04:04.474
"2/8/2020 18:04:04.488",-0.492,0.777,-0.813,2020-02-08 18:04:04.487
"2/8/2020 18:04:04.500",-0.688,0.707,-0.719,2020-02-08 18:04:04.500
"2/8/2020 18:04:04.513",-0.691,0.656,-0.594,2020-02-08 18:04:04.513
"2/8/2020 18:04:04.525",-0.563,0.711,-0.504,2020-02-08 18:04:04.525
"2/8/2020 18:04:04.538",-0.461,0.719,-0.488,2020-02-08 18:04:04.538
"2/8/2020 18:04:04.550",-0.406,0.688,-0.508,2020-02-08 18:04:04.549
"2/8/2020 18:04:04.563",-0.289,0.648,-0.516,2020-02-08 18:04:04.562
"2/8/2020 18:04:04.575",-0.168,0.602,-0.488,2020-02-08 18:04:04.575
"2/8/2020 18:04:04.588",-0.063,0.555,-0.457,2020-02-08 18:04:04.588
"2/8/2020 18:04:04.600",0.008,0.52,-0.379,2020-02-08 18:04:04.599
"2/8/2020 18:04:04.613",0.039,0.523,-0.285,2020-02-08 18:04:04.612
"2/8/2020 18:04:04.625",0.059,0.551,-0.215,2020-02-08 18:04:04.625
"2/8/2020 18:04:04.638",0.027,0.57,-0.215,2020-02-08 18:04:04.638
"2/8/2020 18:04:04.650",-0.07,0.563,-0.27,2020-02-08 18:04:04.650
"2/8/2020 18:04:04.663",-0.176,0.539,-0.316,2020-02-08 18:04:04.663
"2/8/2020 18:04:04.675",-0.188,0.477,-0.27,2020-02-08 18:04:04.674
"2/8/2020 18:04:04.688",-0.145,0.551,-0.195,2020-02-08 18:04:04.687
"2/8/2020 18:04:04.700",-0.125,0.656,-0.137,2020-02-08 18:04:04.700
"2/8/2020 18:04:04.713",-0.012,0.762,-0.066,2020-02-08 18:04:04.713
"2/8/2020 18:04:04.725",0.219,0.777,-0.035,2020-02-08 18:04:04.724
"2/8/2020 18:04:04.738",0.52,0.84,0.168,2020-02-08 18:04:04.737
"2/8/2020 18:04:04.750",0.742,0.953,0.211,2020-02-08 18:04:04.750
"2/8/2020 18:04:04.763",0.723,1,0.16,2020-02-08 18:04:04.763
"2/8/2020 18:04:04.775",0.586,1.125,0.211,2020-02-08 18:04:04.775
"2/8/2020 18:04:04.788",0.469,1.309,0.352,2020-02-08 18:04:04.788
"2/8/2020 18:04:04.800",0.309,1.617,0.27,2020-02-08 18:04:04.799
"2/8/2020 18:04:04.813",-1.367,2.328,-2.914,2020-02-08 18:04:04.812
"2/8/2020 18:04:04.825",-2.254,3.922,0.953,2020-02-08 18:04:04.825
"2/8/2020 18:04:04.838",0.461,0.926,-0.43,2020-02-08 18:04:04.838
"2/8/2020 18:04:04.850",1.426,-0.445,-0.34,2020-02-08 18:04:04.849
"2/8/2020 18:04:04.863",0.223,-0.613,-0.91,2020-02-08 18:04:04.862
"2/8/2020 18:04:04.875",0.023,0.016,0.262,2020-02-08 18:04:04.875
"2/8/2020 18:04:04.888",-0.441,0.355,0.492,2020-02-08 18:04:04.888
"2/8/2020 18:04:04.900",-0.754,0.742,-0.195,2020-02-08 18:04:04.900
"2/8/2020 18:04:04.913",-0.551,1.242,-0.164,2020-02-08 18:04:04.913
"2/8/2020 18:04:04.925",-0.656,1.594,-0.258,2020-02-08 18:04:04.924
"2/8/2020 18:04:04.938",-0.578,1.207,-0.434,2020-02-08 18:04:04.937
"2/8/2020 18:04:04.950",-0.484,0.668,-0.508,2020-02-08 18:04:04.950
"2/8/2020 18:04:04.963",-0.438,0.316,-0.461,2020-02-08 18:04:04.963
"2/8/2020 18:04:04.975",-0.477,0.23,-0.402,2020-02-08 18:04:04.974
"2/8/2020 18:04:04.988",-0.484,0.395,-0.324,2020-02-08 18:04:04.987
"2/8/2020 18:04:05.000",-0.5,0.617,-0.313,2020-02-08 18:04:05.000
"2/8/2020 18:04:05.013",-0.516,0.781,-0.441,2020-02-08 18:04:05.013
"2/8/2020 18:04:05.025",-0.477,0.867,-0.539,2020-02-08 18:04:05.025
"2/8/2020 18:04:05.038",-0.418,0.895,-0.57,2020-02-08 18:04:05.038
"2/8/2020 18:04:05.050",-0.344,0.895,-0.598,2020-02-08 18:04:05.049
"2/8/2020 18:04:05.063",-0.305,0.879,-0.641,2020-02-08 18:04:05.062
"2/8/2020 18:04:05.075",-0.234,0.871,-0.664,2020-02-08 18:04:05.075
"2/8/2020 18:04:05.088",-0.156,0.891,-0.684,2020-02-08 18:04:05.088
"2/8/2020 18:04:05.100",-0.102,0.922,-0.656,2020-02-08 18:04:05.099
"2/8/2020 18:04:05.113",-0.156,0.922,-0.602,2020-02-08 18:04:05.112
"2/8/2020 18:04:05.125",-0.273,0.902,-0.539,2020-02-08 18:04:05.125
"2/8/2020 18:04:05.138",-0.406,0.863,-0.445,2020-02-08 18:04:05.138
"2/8/2020 18:04:05.150",-0.551,0.813,-0.379,2020-02-08 18:04:05.150
"2/8/2020 18:04:05.163",-0.57,0.801,-0.32,2020-02-08 18:04:05.163
"2/8/2020 18:04:05.175",-0.574,0.813,-0.281,2020-02-08 18:04:05.174
"2/8/2020 18:04:05.188",-0.543,0.832,-0.242,2020-02-08 18:04:05.187
"2/8/2020 18:04:05.200",-0.52,0.828,-0.191,2020-02-08 18:04:05.200
"2/8/2020 18:04:05.213",-0.477,0.848,-0.148,2020-02-08 18:04:05.213
"2/8/2020 18:04:05.225",-0.469,0.855,-0.125,2020-02-08 18:04:05.224
"2/8/2020 18:04:05.238",-0.516,0.844,-0.137,2020-02-08 18:04:05.237
"2/8/2020 18:04:05.250",-0.527,0.824,-0.156,2020-02-08 18:04:05.250
"2/8/2020 18:04:05.263",-0.48,0.828,-0.191,2020-02-08 18:04:05.263
"2/8/2020 18:04:05.275",-0.43,0.844,-0.215,2020-02-08 18:04:05.275
"2/8/2020 18:04:05.288",-0.398,0.867,-0.285,2020-02-08 18:04:05.288
"2/8/2020 18:04:05.300",-0.328,0.891,-0.355,2020-02-08 18:04:05.299
"2/8/2020 18:04:05.313",-0.273,0.891,-0.383,2020-02-08 18:04:05.312
"2/8/2020 18:04:05.325",-0.242,0.887,-0.332,2020-02-08 18:04:05.325
"2/8/2020 18:04:05.338",-0.199,0.891,-0.238,2020-02-08 18:04:05.338
"2/8/2020 18:04:05.350",-0.227,0.922,-0.113,2020-02-08 18:04:05.349
"2/8/2020 18:04:05.363",-0.375,0.934,-0.027,2020-02-08 18:04:05.362
"2/8/2020 18:04:05.375",-0.434,0.988,0.023,2020-02-08 18:04:05.375
"2/8/2020 18:04:05.388",-0.445,1.008,0.016,2020-02-08 18:04:05.388
"2/8/2020 18:04:05.400",-0.398,1.043,0.004,2020-02-08 18:04:05.400
"2/8/2020 18:04:05.413",-0.348,1.059,-0.02,2020-02-08 18:04:05.413
"2/8/2020 18:04:05.425",-0.301,1.074,-0.043,2020-02-08 18:04:05.424
"2/8/2020 18:04:05.438",-0.246,1.098,-0.074,2020-02-08 18:04:05.437
"2/8/2020 18:04:05.450",-0.16,1.137,-0.074,2020-02-08 18:04:05.450
"2/8/2020 18:04:05.463",-0.027,1.215,-0.023,2020-02-08 18:04:05.463
"2/8/2020 18:04:05.475",0.09,1.395,0.082,2020-02-08 18:04:05.474
"2/8/2020 18:04:05.488",0.105,1.469,0.195,2020-02-08 18:04:05.487
"2/8/2020 18:04:05.500",0.043,1.465,0.215,2020-02-08 18:04:05.500
"2/8/2020 18:04:05.513",-0.059,1.324,0.168,2020-02-08 18:04:05.513
"2/8/2020 18:04:05.525",-0.176,1.238,0.141,2020-02-08 18:04:05.525
"2/8/2020 18:04:05.538",-0.355,1.207,0.02,2020-02-08 18:04:05.538
"2/8/2020 18:04:05.550",-0.715,1.148,-0.113,2020-02-08 18:04:05.549
"2/8/2020 18:04:05.563",-1.113,1.141,-0.141,2020-02-08 18:04:05.562
"2/8/2020 18:04:05.575",-1.379,1.27,-0.262,2020-02-08 18:04:05.575
"2/8/2020 18:04:05.588",-1.477,1.262,-0.574,2020-02-08 18:04:05.588
"2/8/2020 18:04:05.600",-1.281,1.129,-0.805,2020-02-08 18:04:05.599
"2/8/2020 18:04:05.613",-0.828,0.977,-0.879,2020-02-08 18:04:05.612
"2/8/2020 18:04:05.625",-0.285,0.844,-0.949,2020-02-08 18:04:05.625
"2/8/2020 18:04:05.638",0.027,0.676,-0.996,2020-02-08 18:04:05.638
"2/8/2020 18:04:05.650",0.051,0.516,-0.883,2020-02-08 18:04:05.650
"2/8/2020 18:04:05.663",-0.051,0.383,-0.797,2020-02-08 18:04:05.663
"2/8/2020 18:04:05.675",-0.297,0.191,-0.703,2020-02-08 18:04:05.674
"2/8/2020 18:04:05.688",-0.504,0.012,-0.516,2020-02-08 18:04:05.687
"2/8/2020 18:04:05.700",-0.543,-0.07,-0.383,2020-02-08 18:04:05.700
"2/8/2020 18:04:05.713",-0.594,-0.074,-0.184,2020-02-08 18:04:05.713
"2/8/2020 18:04:05.725",-0.777,-0.004,-0.043,2020-02-08 18:04:05.724
"2/8/2020 18:04:05.738",-0.934,0.129,-0.023,2020-02-08 18:04:05.737
"2/8/2020 18:04:05.750",-0.898,0.23,-0.078,2020-02-08 18:04:05.750
"2/8/2020 18:04:05.763",-0.734,0.266,-0.145,2020-02-08 18:04:05.763
"2/8/2020 18:04:05.775",-0.52,0.258,-0.184,2020-02-08 18:04:05.775
"2/8/2020 18:04:05.788",-0.234,0.313,-0.262,2020-02-08 18:04:05.788
"2/8/2020 18:04:05.800",0.031,0.367,-0.348,2020-02-08 18:04:05.799
"2/8/2020 18:04:05.813",0.16,0.414,-0.363,2020-02-08 18:04:05.812
"2/8/2020 18:04:05.825",0.203,0.441,-0.336,2020-02-08 18:04:05.825
"2/8/2020 18:04:05.838",0.168,0.457,-0.262,2020-02-08 18:04:05.838
"2/8/2020 18:04:05.850",0.098,0.469,-0.234,2020-02-08 18:04:05.849
"2/8/2020 18:04:05.863",0.043,0.473,-0.242,2020-02-08 18:04:05.862
"2/8/2020 18:04:05.875",0.008,0.488,-0.234,2020-02-08 18:04:05.875
"2/8/2020 18:04:05.888",0.031,0.523,-0.266,2020-02-08 18:04:05.888
"2/8/2020 18:04:05.900",0.074,0.551,-0.32,2020-02-08 18:04:05.900
"2/8/2020 18:04:05.913",0.102,0.566,-0.371,2020-02-08 18:04:05.913
"2/8/2020 18:04:05.925",0.051,0.613,-0.359,2020-02-08 18:04:05.924
"2/8/2020 18:04:05.938",-0.156,0.629,-0.336,2020-02-08 18:04:05.937
"2/8/2020 18:04:05.950",-0.359,0.656,-0.305,2020-02-08 18:04:05.950
"2/8/2020 18:04:05.963",-0.398,0.785,-0.297,2020-02-08 18:04:05.963
"2/8/2020 18:04:05.975",-0.383,0.953,-0.313,2020-02-08 18:04:05.974
"2/8/2020 18:04:05.988",-0.336,1.551,-1.484,2020-02-08 18:04:05.987
"2/8/2020 18:04:06.000",-1.863,2.445,-1.188,2020-02-08 18:04:06.000
"2/8/2020 18:04:06.013",1.02,0.551,-0.371,2020-02-08 18:04:06.013
"2/8/2020 18:04:06.025",1.852,-0.633,0.762,2020-02-08 18:04:06.025
"2/8/2020 18:04:06.038",1.98,-0.109,0.531,2020-02-08 18:04:06.038
"2/8/2020 18:04:06.050",0.102,0.164,-0.402,2020-02-08 18:04:06.049
"2/8/2020 18:04:06.063",-0.957,0.59,-0.992,2020-02-08 18:04:06.062
"2/8/2020 18:04:06.075",-0.789,0.949,-0.633,2020-02-08 18:04:06.075
"2/8/2020 18:04:06.088",-0.215,1.395,-0.219,2020-02-08 18:04:06.088
"2/8/2020 18:04:06.100",-0.277,1.285,-0.207,2020-02-08 18:04:06.099
"2/8/2020 18:04:06.113",-0.395,0.914,-0.305,2020-02-08 18:04:06.112
"2/8/2020 18:04:06.125",-0.422,0.633,-0.273,2020-02-08 18:04:06.125
"2/8/2020 18:04:06.138",-0.438,0.641,-0.242,2020-02-08 18:04:06.138
"2/8/2020 18:04:06.150",-0.445,0.891,-0.117,2020-02-08 18:04:06.150
"2/8/2020 18:04:06.163",-0.469,1.074,-0.035,2020-02-08 18:04:06.163
"2/8/2020 18:04:06.175",-0.336,1.074,-0.082,2020-02-08 18:04:06.174
"2/8/2020 18:04:06.188",-0.172,0.961,-0.18,2020-02-08 18:04:06.187
"2/8/2020 18:04:06.200",-0.129,0.844,-0.219,2020-02-08 18:04:06.200
"2/8/2020 18:04:06.213",-0.195,0.836,-0.219,2020-02-08 18:04:06.213
"2/8/2020 18:04:06.225",-0.273,0.906,-0.211,2020-02-08 18:04:06.224
"2/8/2020 18:04:06.238",-0.32,0.953,-0.223,2020-02-08 18:04:06.237
"2/8/2020 18:04:06.250",-0.293,0.941,-0.238,2020-02-08 18:04:06.250
"2/8/2020 18:04:06.263",-0.219,0.926,-0.238,2020-02-08 18:04:06.263
"2/8/2020 18:04:06.275",-0.145,0.93,-0.246,2020-02-08 18:04:06.275
"2/8/2020 18:04:06.288",-0.125,0.945,-0.27,2020-02-08 18:04:06.288
"2/8/2020 18:04:06.300",-0.148,0.941,-0.266,2020-02-08 18:04:06.299
"2/8/2020 18:04:06.313",-0.207,0.918,-0.246,2020-02-08 18:04:06.312
"2/8/2020 18:04:06.325",-0.234,0.91,-0.227,2020-02-08 18:04:06.325
"2/8/2020 18:04:06.338",-0.246,0.918,-0.211,2020-02-08 18:04:06.338
"2/8/2020 18:04:06.350",-0.246,0.926,-0.188,2020-02-08 18:04:06.349
"2/8/2020 18:04:06.363",-0.234,0.949,-0.156,2020-02-08 18:04:06.362
"2/8/2020 18:04:06.375",-0.223,0.988,-0.137,2020-02-08 18:04:06.375
"2/8/2020 18:04:06.388",-0.207,1,-0.113,2020-02-08 18:04:06.388
"2/8/2020 18:04:06.400",-0.172,0.988,-0.105,2020-02-08 18:04:06.400
"2/8/2020 18:04:06.413",-0.102,0.973,-0.09,2020-02-08 18:04:06.413
"2/8/2020 18:04:06.425",0.008,0.977,-0.066,2020-02-08 18:04:06.424
"2/8/2020 18:04:06.438",0.027,1.012,-0.07,2020-02-08 18:04:06.437
"2/8/2020 18:04:06.450",0.016,1.086,-0.016,2020-02-08 18:04:06.450
"2/8/2020 18:04:06.463",-0.063,1.098,-0.051,2020-02-08 18:04:06.463
"2/8/2020 18:04:06.475",-0.078,1.145,-0.035,2020-02-08 18:04:06.474
"2/8/2020 18:04:06.488",-0.082,1.219,0.016,2020-02-08 18:04:06.487
"2/8/2020 18:04:06.500",-0.23,1.441,0.059,2020-02-08 18:04:06.500
"2/8/2020 18:04:06.513",-0.188,1.684,0.172,2020-02-08 18:04:06.513
"2/8/2020 18:04:06.525",-0.203,1.914,0.23,2020-02-08 18:04:06.525
"2/8/2020 18:04:06.538",-0.258,2.344,0.32,2020-02-08 18:04:06.538
"2/8/2020 18:04:06.550",-0.32,2.781,0.414,2020-02-08 18:04:06.549
"2/8/2020 18:04:06.563",-0.195,2.902,0.574,2020-02-08 18:04:06.562
"2/8/2020 18:04:06.575",-0.168,2.598,0.617,2020-02-08 18:04:06.575
"2/8/2020 18:04:06.588",-0.488,2.234,0.438,2020-02-08 18:04:06.588
"2/8/2020 18:04:06.600",-1.074,1.738,-0.145,2020-02-08 18:04:06.599
"2/8/2020 18:04:06.613",-1.414,1.352,-0.594,2020-02-08 18:04:06.612
"2/8/2020 18:04:06.625",-1.43,1.16,-0.965,2020-02-08 18:04:06.625
"2/8/2020 18:04:06.638",-1.477,0.922,-0.938,2020-02-08 18:04:06.638
"2/8/2020 18:04:06.650",-1.328,0.777,-0.77,2020-02-08 18:04:06.650
"2/8/2020 18:04:06.663",-1.215,0.617,-0.602,2020-02-08 18:04:06.663
"2/8/2020 18:04:06.675",-1.348,0.395,-0.469,2020-02-08 18:04:06.674
"2/8/2020 18:04:06.688",-1.5,0.121,-0.332,2020-02-08 18:04:06.687
"2/8/2020 18:04:06.700",-1.527,-0.215,-0.141,2020-02-08 18:04:06.700
"2/8/2020 18:04:06.713",-1.469,-0.57,0.008,2020-02-08 18:04:06.713
"2/8/2020 18:04:06.725",-1.277,-0.871,0.082,2020-02-08 18:04:06.724
"2/8/2020 18:04:06.738",-0.914,-0.938,0.102,2020-02-08 18:04:06.737
"2/8/2020 18:04:06.750",-0.52,-0.891,0.145,2020-02-08 18:04:06.750
"2/8/2020 18:04:06.763",-0.203,-0.859,0.199,2020-02-08 18:04:06.763
"2/8/2020 18:04:06.775",-0.027,-0.816,0.246,2020-02-08 18:04:06.775
"2/8/2020 18:04:06.788",0.082,-0.762,0.273,2020-02-08 18:04:06.788
"2/8/2020 18:04:06.800",0.203,-0.699,0.258,2020-02-08 18:04:06.799
"2/8/2020 18:04:06.813",0.359,-0.688,0.195,2020-02-08 18:04:06.812
"2/8/2020 18:04:06.825",0.445,-0.727,0.063,2020-02-08 18:04:06.825
"2/8/2020 18:04:06.838",0.418,-0.836,-0.07,2020-02-08 18:04:06.838
"2/8/2020 18:04:06.850",0.32,-1,-0.113,2020-02-08 18:04:06.849
"2/8/2020 18:04:06.863",0.211,-1.129,-0.086,2020-02-08 18:04:06.862
"2/8/2020 18:04:06.875",0.086,-1.172,-0.098,2020-02-08 18:04:06.875
"2/8/2020 18:04:06.888",-0.063,-1.145,-0.16,2020-02-08 18:04:06.888
"2/8/2020 18:04:06.900",-0.125,-1.082,-0.207,2020-02-08 18:04:06.900
"2/8/2020 18:04:06.913",-0.098,-0.965,-0.164,2020-02-08 18:04:06.913
"2/8/2020 18:04:06.925",-0.066,-0.797,-0.164,2020-02-08 18:04:06.924
"2/8/2020 18:04:06.938",-0.02,-0.625,-0.195,2020-02-08 18:04:06.937
"2/8/2020 18:04:06.950",0.039,-0.457,-0.215,2020-02-08 18:04:06.950
"2/8/2020 18:04:06.963",0.039,-0.316,-0.281,2020-02-08 18:04:06.963
"2/8/2020 18:04:06.975",-0.117,-0.16,-0.434,2020-02-08 18:04:06.974
"2/8/2020 18:04:06.988",-0.539,0.039,-0.625,2020-02-08 18:04:06.987
"2/8/2020 18:04:07.000",-1.004,0.332,-0.691,2020-02-08 18:04:07.000
"2/8/2020 18:04:07.013",-1.199,0.723,-0.637,2020-02-08 18:04:07.013
"2/8/2020 18:04:07.025",-0.891,1.625,-0.574,2020-02-08 18:04:07.025
"2/8/2020 18:04:07.038",-0.504,2.77,-0.371,2020-02-08 18:04:07.038
"2/8/2020 18:04:07.050",-1.066,2.875,-0.645,2020-02-08 18:04:07.049
"2/8/2020 18:04:07.063",-4.699,3.008,-1.824,2020-02-08 18:04:07.062
"2/8/2020 18:04:07.075",-0.648,3.965,1.301,2020-02-08 18:04:07.075
"2/8/2020 18:04:07.088",4.402,1.074,2.02,2020-02-08 18:04:07.088
"2/8/2020 18:04:07.100",1.801,1.285,1.508,2020-02-08 18:04:07.099
"2/8/2020 18:04:07.113",0.473,1.066,1.484,2020-02-08 18:04:07.112
"2/8/2020 18:04:07.125",0.496,1.938,1.016,2020-02-08 18:04:07.125
"2/8/2020 18:04:07.138",0.156,1.996,0.516,2020-02-08 18:04:07.138
"2/8/2020 18:04:07.150",0.512,2.008,-0.547,2020-02-08 18:04:07.150
"2/8/2020 18:04:07.163",1.605,4.574,0.629,2020-02-08 18:04:07.163
"2/8/2020 18:04:07.175",-0.539,4.402,1.32,2020-02-08 18:04:07.174
"2/8/2020 18:04:07.188",-0.91,1.191,0.02,2020-02-08 18:04:07.187
"2/8/2020 18:04:07.200",-0.613,-0.172,-1.137,2020-02-08 18:04:07.200
"2/8/2020 18:04:07.213",-0.086,-0.289,-1.355,2020-02-08 18:04:07.213
"2/8/2020 18:04:07.225",-0.031,0.066,-1.113,2020-02-08 18:04:07.224
"2/8/2020 18:04:07.238",-0.398,0.348,-0.875,2020-02-08 18:04:07.237
"2/8/2020 18:04:07.250",-0.652,0.879,-0.57,2020-02-08 18:04:07.250
"2/8/2020 18:04:07.263",-0.574,1.535,-0.152,2020-02-08 18:04:07.263
"2/8/2020 18:04:07.275",-0.414,1.5,0.176,2020-02-08 18:04:07.275
"2/8/2020 18:04:07.288",-0.352,1.074,0.383,2020-02-08 18:04:07.288
"2/8/2020 18:04:07.300",-0.297,0.805,0.402,2020-02-08 18:04:07.299
"2/8/2020 18:04:07.313",-0.238,0.867,0.305,2020-02-08 18:04:07.312
"2/8/2020 18:04:07.325",-0.27,1,0.27,2020-02-08 18:04:07.325
"2/8/2020 18:04:07.338",-0.199,1.156,0.309,2020-02-08 18:04:07.338
"2/8/2020 18:04:07.350",-0.074,1.57,0.141,2020-02-08 18:04:07.349
"2/8/2020 18:04:07.363",-0.051,1.629,-0.234,2020-02-08 18:04:07.362
"2/8/2020 18:04:07.375",-0.078,1.668,-0.504,2020-02-08 18:04:07.375
"2/8/2020 18:04:07.388",-0.129,1.598,-0.688,2020-02-08 18:04:07.388
"2/8/2020 18:04:07.400",-0.219,1.59,-0.891,2020-02-08 18:04:07.400
"2/8/2020 18:04:07.413",-0.301,1.434,-0.824,2020-02-08 18:04:07.413
"2/8/2020 18:04:07.425",-0.355,1.379,-0.551,2020-02-08 18:04:07.424
"2/8/2020 18:04:07.438",-0.441,1.324,-0.344,2020-02-08 18:04:07.437
"2/8/2020 18:04:07.450",-0.371,1.066,-0.176,2020-02-08 18:04:07.450
"2/8/2020 18:04:07.463",0.078,0.609,0.117,2020-02-08 18:04:07.463
"2/8/2020 18:04:07.475",0.723,-0.219,0.594,2020-02-08 18:04:07.474
"2/8/2020 18:04:07.488",1.375,-1.332,1.242,2020-02-08 18:04:07.487
"2/8/2020 18:04:07.500",2.031,-2.039,1.746,2020-02-08 18:04:07.500
"2/8/2020 18:04:07.513",2.328,-2.039,1.801,2020-02-08 18:04:07.513
"2/8/2020 18:04:07.525",1.746,-1.066,1.633,2020-02-08 18:04:07.525
"2/8/2020 18:04:07.538",0.941,0.188,1.168,2020-02-08 18:04:07.538
"2/8/2020 18:04:07.550",0.234,2.719,-0.41,2020-02-08 18:04:07.549
"2/8/2020 18:04:07.563",-0.434,5.449,0.672,2020-02-08 18:04:07.562
"2/8/2020 18:04:07.575",0.621,0.145,-0.797,2020-02-08 18:04:07.575
"2/8/2020 18:04:07.588",2.004,-1.211,0.801,2020-02-08 18:04:07.588
"2/8/2020 18:04:07.600",1.945,0,-0.094,2020-02-08 18:04:07.599
"2/8/2020 18:04:07.613",0.309,0.281,-0.434,2020-02-08 18:04:07.612
"2/8/2020 18:04:07.625",-0.461,0.766,-0.313,2020-02-08 18:04:07.625
"2/8/2020 18:04:07.638",-0.516,1.32,-0.352,2020-02-08 18:04:07.638
"2/8/2020 18:04:07.650",-0.234,1.648,-0.074,2020-02-08 18:04:07.650
"2/8/2020 18:04:07.663",-0.207,1.289,0.117,2020-02-08 18:04:07.663
"2/8/2020 18:04:07.675",-0.328,0.887,0.121,2020-02-08 18:04:07.674
"2/8/2020 18:04:07.688",-0.457,0.703,0.051,2020-02-08 18:04:07.687
"2/8/2020 18:04:07.700",-0.469,0.656,-0.039,2020-02-08 18:04:07.700
"2/8/2020 18:04:07.713",-0.355,0.816,-0.023,2020-02-08 18:04:07.713
"2/8/2020 18:04:07.725",-0.23,1.016,0.043,2020-02-08 18:04:07.724
"2/8/2020 18:04:07.738",-0.227,1.082,0.098,2020-02-08 18:04:07.737
"2/8/2020 18:04:07.750",-0.227,1.039,0.09,2020-02-08 18:04:07.750
"2/8/2020 18:04:07.763",-0.277,0.973,0.023,2020-02-08 18:04:07.763
"2/8/2020 18:04:07.775",-0.367,0.988,-0.02,2020-02-08 18:04:07.775
"2/8/2020 18:04:07.788",-0.445,1.008,-0.031,2020-02-08 18:04:07.788
"2/8/2020 18:04:07.800",-0.492,0.988,-0.051,2020-02-08 18:04:07.799
"2/8/2020 18:04:07.813",-0.461,0.992,-0.129,2020-02-08 18:04:07.812
"2/8/2020 18:04:07.825",-0.461,1.004,-0.25,2020-02-08 18:04:07.825
"2/8/2020 18:04:07.838",-0.359,1.078,-0.43,2020-02-08 18:04:07.838
"2/8/2020 18:04:07.850",-0.055,1.426,-0.641,2020-02-08 18:04:07.849
"2/8/2020 18:04:07.863",-0.086,1.852,-1,2020-02-08 18:04:07.862
"2/8/2020 18:04:07.875",-0.973,1.906,-1.316,2020-02-08 18:04:07.875
"2/8/2020 18:04:07.888",-1.746,1.762,-1.035,2020-02-08 18:04:07.888
"2/8/2020 18:04:07.900",-1.797,1.797,-0.871,2020-02-08 18:04:07.900
"2/8/2020 18:04:07.913",-1.641,1.676,-0.727,2020-02-08 18:04:07.913
"2/8/2020 18:04:07.925",-1.492,1.402,-0.516,2020-02-08 18:04:07.924
"2/8/2020 18:04:07.938",-1.289,1.184,-0.266,2020-02-08 18:04:07.937
"2/8/2020 18:04:07.950",-1.004,0.992,-0.066,2020-02-08 18:04:07.950
"2/8/2020 18:04:07.963",-0.672,0.816,0.129,2020-02-08 18:04:07.963
"2/8/2020 18:04:07.975",-0.301,0.68,0.25,2020-02-08 18:04:07.974
"2/8/2020 18:04:07.988",0.086,0.496,0.375,2020-02-08 18:04:07.987
"2/8/2020 18:04:08.000",0.48,0.207,0.492,2020-02-08 18:04:08.000
"2/8/2020 18:04:08.013",0.695,-0.086,0.551,2020-02-08 18:04:08.013
"2/8/2020 18:04:08.025",0.703,-0.418,0.496,2020-02-08 18:04:08.025
"2/8/2020 18:04:08.038",0.539,-0.699,0.457,2020-02-08 18:04:08.038
"2/8/2020 18:04:08.050",0.629,-0.738,0.621,2020-02-08 18:04:08.049
"2/8/2020 18:04:08.063",1.074,-0.516,0.703,2020-02-08 18:04:08.062
"2/8/2020 18:04:08.075",1.391,-0.363,0.59,2020-02-08 18:04:08.075
"2/8/2020 18:04:08.088",1.363,-0.348,0.406,2020-02-08 18:04:08.088
"2/8/2020 18:04:08.100",1.18,-0.383,0.402,2020-02-08 18:04:08.099
"2/8/2020 18:04:08.113",0.766,-0.316,0.176,2020-02-08 18:04:08.112
"2/8/2020 18:04:08.125",-1.797,-0.621,-2.301,2020-02-08 18:04:08.125
"2/8/2020 18:04:08.138",-3.223,3.168,-1.336,2020-02-08 18:04:08.138
"2/8/2020 18:04:08.150",2.301,2.844,-0.73,2020-02-08 18:04:08.150
"2/8/2020 18:04:08.163",3.793,1.645,-0.281,2020-02-08 18:04:08.163
"2/8/2020 18:04:08.175",-0.102,0.793,-0.559,2020-02-08 18:04:08.174
"2/8/2020 18:04:08.188",-0.367,1.012,-0.461,2020-02-08 18:04:08.187
"2/8/2020 18:04:08.200",0.156,1.434,-0.23,2020-02-08 18:04:08.200
"2/8/2020 18:04:08.213",0.082,1.785,-0.238,2020-02-08 18:04:08.213
"2/8/2020 18:04:08.225",-0.105,1.492,-0.176,2020-02-08 18:04:08.224
"2/8/2020 18:04:08.238",-0.383,0.941,-0.117,2020-02-08 18:04:08.237
"2/8/2020 18:04:08.250",-0.691,0.488,-0.027,2020-02-08 18:04:08.250
"2/8/2020 18:04:08.263",-0.867,0.305,-0.016,2020-02-08 18:04:08.263
"2/8/2020 18:04:08.275",-0.668,0.383,-0.23,2020-02-08 18:04:08.275
"2/8/2020 18:04:08.288",-0.383,0.676,-0.422,2020-02-08 18:04:08.288
"2/8/2020 18:04:08.300",-0.133,1.078,-0.496,2020-02-08 18:04:08.299
"2/8/2020 18:04:08.313",0.023,1.465,-0.504,2020-02-08 18:04:08.312
"2/8/2020 18:04:08.325",0.004,1.598,-0.461,2020-02-08 18:04:08.325
"2/8/2020 18:04:08.338",-0.168,1.449,-0.332,2020-02-08 18:04:08.338
"2/8/2020 18:04:08.350",-0.414,1.375,-0.176,2020-02-08 18:04:08.349
"2/8/2020 18:04:08.363",-0.648,1.344,-0.105,2020-02-08 18:04:08.362
"2/8/2020 18:04:08.375",-0.676,1.109,-0.191,2020-02-08 18:04:08.375
"2/8/2020 18:04:08.388",-0.492,0.766,-0.332,2020-02-08 18:04:08.388
"2/8/2020 18:04:08.400",-0.367,0.668,-0.387,2020-02-08 18:04:08.400
"2/8/2020 18:04:08.413",-0.285,0.91,-0.297,2020-02-08 18:04:08.413
"2/8/2020 18:04:08.425",-0.34,1.137,-0.23,2020-02-08 18:04:08.424
"2/8/2020 18:04:08.438",-0.371,1.082,-0.289,2020-02-08 18:04:08.437
"2/8/2020 18:04:08.450",-0.336,0.863,-0.391,2020-02-08 18:04:08.450
"2/8/2020 18:04:08.463",-0.301,0.746,-0.406,2020-02-08 18:04:08.463
"2/8/2020 18:04:08.475",-0.281,0.824,-0.398,2020-02-08 18:04:08.474
"2/8/2020 18:04:08.488",-0.305,0.902,-0.395,2020-02-08 18:04:08.487
"2/8/2020 18:04:08.500",-0.293,0.93,-0.391,2020-02-08 18:04:08.500
"2/8/2020 18:04:08.513",-0.227,0.887,-0.426,2020-02-08 18:04:08.513
"2/8/2020 18:04:08.525",-0.203,0.852,-0.457,2020-02-08 18:04:08.525
"2/8/2020 18:04:08.538",-0.207,0.848,-0.43,2020-02-08 18:04:08.538
"2/8/2020 18:04:08.550",-0.219,0.879,-0.395,2020-02-08 18:04:08.549
"2/8/2020 18:04:08.563",-0.234,0.898,-0.379,2020-02-08 18:04:08.562
"2/8/2020 18:04:08.575",-0.195,0.914,-0.387,2020-02-08 18:04:08.575
"2/8/2020 18:04:08.588",-0.141,0.914,-0.406,2020-02-08 18:04:08.588
"2/8/2020 18:04:08.600",-0.117,0.898,-0.406,2020-02-08 18:04:08.599
"2/8/2020 18:04:08.613",-0.113,0.898,-0.363,2020-02-08 18:04:08.612
"2/8/2020 18:04:08.625",-0.117,0.918,-0.34,2020-02-08 18:04:08.625
"2/8/2020 18:04:08.638",-0.133,0.945,-0.305,2020-02-08 18:04:08.638
"2/8/2020 18:04:08.650",-0.219,0.973,-0.324,2020-02-08 18:04:08.650
"2/8/2020 18:04:08.663",-0.266,0.965,-0.391,2020-02-08 18:04:08.663
"2/8/2020 18:04:08.675",-0.176,0.945,-0.41,2020-02-08 18:04:08.674
"2/8/2020 18:04:08.688",-0.102,0.938,-0.406,2020-02-08 18:04:08.687
"2/8/2020 18:04:08.700",-0.152,0.953,-0.398,2020-02-08 18:04:08.700
"2/8/2020 18:04:08.713",-0.215,1,-0.324,2020-02-08 18:04:08.713
"2/8/2020 18:04:08.725",-0.199,1.07,-0.234,2020-02-08 18:04:08.724
"2/8/2020 18:04:08.738",-0.137,1.145,-0.176,2020-02-08 18:04:08.737
"2/8/2020 18:04:08.750",-0.082,1.199,-0.117,2020-02-08 18:04:08.750
"2/8/2020 18:04:08.763",-0.078,1.254,-0.113,2020-02-08 18:04:08.763
"2/8/2020 18:04:08.775",-0.02,1.363,-0.105,2020-02-08 18:04:08.775
"2/8/2020 18:04:08.788",0.016,1.41,-0.098,2020-02-08 18:04:08.788
"2/8/2020 18:04:08.800",-0.086,1.359,-0.023,2020-02-08 18:04:08.799
"2/8/2020 18:04:08.813",-0.273,1.227,0.117,2020-02-08 18:04:08.812
"2/8/2020 18:04:08.825",-0.488,1.094,0.223,2020-02-08 18:04:08.825
"2/8/2020 18:04:08.838",-0.828,0.914,0.223,2020-02-08 18:04:08.838
"2/8/2020 18:04:08.850",-1.363,0.723,0.113,2020-02-08 18:04:08.849
"2/8/2020 18:04:08.863",-1.93,0.609,-0.047,2020-02-08 18:04:08.862
"2/8/2020 18:04:08.875",-2.109,0.707,-0.262,2020-02-08 18:04:08.875
"2/8/2020 18:04:08.888",-1.922,0.938,-0.516,2020-02-08 18:04:08.888
"2/8/2020 18:04:08.900",-1.551,1.105,-0.551,2020-02-08 18:04:08.900
"2/8/2020 18:04:08.913",-1.121,1.176,-0.547,2020-02-08 18:04:08.913
"2/8/2020 18:04:08.925",-0.797,1.176,-0.492,2020-02-08 18:04:08.924
"2/8/2020 18:04:08.938",-0.586,1.043,-0.395,2020-02-08 18:04:08.937
"2/8/2020 18:04:08.950",-0.449,0.855,-0.242,2020-02-08 18:04:08.950
"2/8/2020 18:04:08.963",-0.359,0.699,-0.078,2020-02-08 18:04:08.963
"2/8/2020 18:04:08.975",-0.309,0.566,0.086,2020-02-08 18:04:08.974
"2/8/2020 18:04:08.988",-0.277,0.488,0.234,2020-02-08 18:04:08.987
"2/8/2020 18:04:09.000",-0.289,0.426,0.289,2020-02-08 18:04:09.000
"2/8/2020 18:04:09.013",-0.305,0.363,0.324,2020-02-08 18:04:09.013
"2/8/2020 18:04:09.025",-0.27,0.309,0.387,2020-02-08 18:04:09.025
"2/8/2020 18:04:09.038",-0.195,0.246,0.445,2020-02-08 18:04:09.038
"2/8/2020 18:04:09.050",-0.063,0.199,0.461,2020-02-08 18:04:09.049
"2/8/2020 18:04:09.063",0.094,0.102,0.434,2020-02-08 18:04:09.062
"2/8/2020 18:04:09.075",0.227,-0.039,0.402,2020-02-08 18:04:09.075
"2/8/2020 18:04:09.088",0.273,-0.105,0.398,2020-02-08 18:04:09.088
"2/8/2020 18:04:09.100",0.254,-0.109,0.371,2020-02-08 18:04:09.099
"2/8/2020 18:04:09.113",0.25,-0.027,0.305,2020-02-08 18:04:09.112
"2/8/2020 18:04:09.125",0.313,0.051,0.254,2020-02-08 18:04:09.125
"2/8/2020 18:04:09.138",0.387,0.176,0.195,2020-02-08 18:04:09.138
"2/8/2020 18:04:09.150",0.418,0.309,0.227,2020-02-08 18:04:09.150
"2/8/2020 18:04:09.163",0.484,0.41,0.332,2020-02-08 18:04:09.163
"2/8/2020 18:04:09.175",-1.527,0.492,-1.48,2020-02-08 18:04:09.174
"2/8/2020 18:04:09.188",-5.199,2.141,-0.902,2020-02-08 18:04:09.187
"2/8/2020 18:04:09.200",-1.262,2.949,-0.871,2020-02-08 18:04:09.200
"2/8/2020 18:04:09.213",2.211,1.531,-0.18,2020-02-08 18:04:09.213
"2/8/2020 18:04:09.225",1.105,0.887,-0.184,2020-02-08 18:04:09.224
"2/8/2020 18:04:09.238",-0.492,1.09,-0.352,2020-02-08 18:04:09.237
"2/8/2020 18:04:09.250",-0.195,1.316,0.094,2020-02-08 18:04:09.250
"2/8/2020 18:04:09.263",-0.242,1.512,0.039,2020-02-08 18:04:09.263
"2/8/2020 18:04:09.275",-0.754,2.164,-0.105,2020-02-08 18:04:09.275
"2/8/2020 18:04:09.288",-0.258,3.191,0.848,2020-02-08 18:04:09.288
"2/8/2020 18:04:09.300",-0.414,2.656,0.785,2020-02-08 18:04:09.299
"2/8/2020 18:04:09.313",-1.051,0.969,0.375,2020-02-08 18:04:09.312
"2/8/2020 18:04:09.325",-0.996,0.211,-0.109,2020-02-08 18:04:09.325
"2/8/2020 18:04:09.338",-0.449,0.391,-0.488,2020-02-08 18:04:09.338
"2/8/2020 18:04:09.350",0,0.762,-0.594,2020-02-08 18:04:09.349
"2/8/2020 18:04:09.363",0.09,0.91,-0.531,2020-02-08 18:04:09.362
"2/8/2020 18:04:09.375",-0.035,0.953,-0.461,2020-02-08 18:04:09.375
"2/8/2020 18:04:09.388",-0.195,0.953,-0.395,2020-02-08 18:04:09.388
"2/8/2020 18:04:09.400",-0.367,0.938,-0.301,2020-02-08 18:04:09.400
"2/8/2020 18:04:09.413",-0.465,0.922,-0.211,2020-02-08 18:04:09.413
"2/8/2020 18:04:09.425",-0.457,0.879,-0.195,2020-02-08 18:04:09.424
"2/8/2020 18:04:09.438",-0.336,0.867,-0.203,2020-02-08 18:04:09.437
"2/8/2020 18:04:09.450",-0.234,0.906,-0.215,2020-02-08 18:04:09.450
"2/8/2020 18:04:09.463",-0.199,0.914,-0.246,2020-02-08 18:04:09.463
"2/8/2020 18:04:09.475",-0.227,0.914,-0.258,2020-02-08 18:04:09.474
"2/8/2020 18:04:09.488",-0.277,0.906,-0.25,2020-02-08 18:04:09.487
"2/8/2020 18:04:09.500",-0.309,0.93,-0.23,2020-02-08 18:04:09.500
"2/8/2020 18:04:09.513",-0.227,0.941,-0.215,2020-02-08 18:04:09.513
"2/8/2020 18:04:09.525",-0.164,0.941,-0.211,2020-02-08 18:04:09.525
"2/8/2020 18:04:09.538",-0.137,0.941,-0.211,2020-02-08 18:04:09.538
"2/8/2020 18:04:09.550",-0.133,0.957,-0.211,2020-02-08 18:04:09.549
"2/8/2020 18:04:09.563",-0.082,0.969,-0.191,2020-02-08 18:04:09.562
"2/8/2020 18:04:09.575",0.02,0.992,-0.184,2020-02-08 18:04:09.575
"2/8/2020 18:04:09.588",0.063,1.016,-0.172,2020-02-08 18:04:09.588
"2/8/2020 18:04:09.600",0.004,1.027,-0.145,2020-02-08 18:04:09.599
"2/8/2020 18:04:09.613",-0.113,0.996,-0.133,2020-02-08 18:04:09.612
"2/8/2020 18:04:09.625",-0.164,0.949,-0.113,2020-02-08 18:04:09.625
"2/8/2020 18:04:09.638",-0.168,0.945,-0.113,2020-02-08 18:04:09.638
"2/8/2020 18:04:09.650",-0.156,0.969,-0.102,2020-02-08 18:04:09.650
"2/8/2020 18:04:09.663",-0.18,0.961,-0.102,2020-02-08 18:04:09.663
"2/8/2020 18:04:09.675",-0.223,0.93,-0.09,2020-02-08 18:04:09.674
"2/8/2020 18:04:09.688",-0.266,0.945,-0.094,2020-02-08 18:04:09.687
"2/8/2020 18:04:09.700",-0.262,0.977,-0.098,2020-02-08 18:04:09.700
"2/8/2020 18:04:09.713",-0.277,0.934,-0.109,2020-02-08 18:04:09.713
"2/8/2020 18:04:09.725",-0.324,0.867,-0.133,2020-02-08 18:04:09.724
"2/8/2020 18:04:09.738",-0.434,0.863,-0.199,2020-02-08 18:04:09.737
"2/8/2020 18:04:09.750",-0.531,0.844,-0.242,2020-02-08 18:04:09.750
"2/8/2020 18:04:09.763",-0.531,0.816,-0.219,2020-02-08 18:04:09.763
"2/8/2020 18:04:09.775",-0.465,0.852,-0.176,2020-02-08 18:04:09.775
"2/8/2020 18:04:09.788",-0.465,0.875,-0.156,2020-02-08 18:04:09.788
"2/8/2020 18:04:09.800",-0.477,0.863,-0.125,2020-02-08 18:04:09.799
"2/8/2020 18:04:09.813",-0.477,0.871,-0.133,2020-02-08 18:04:09.812
"2/8/2020 18:04:09.825",-0.438,0.879,-0.184,2020-02-08 18:04:09.825
"2/8/2020 18:04:09.838",-0.352,0.871,-0.215,2020-02-08 18:04:09.838
"2/8/2020 18:04:09.850",-0.254,0.883,-0.23,2020-02-08 18:04:09.849
"2/8/2020 18:04:09.863",-0.176,0.918,-0.211,2020-02-08 18:04:09.862
"2/8/2020 18:04:09.875",-0.148,0.961,-0.219,2020-02-08 18:04:09.875
"2/8/2020 18:04:09.888",-0.188,0.977,-0.227,2020-02-08 18:04:09.888
"2/8/2020 18:04:09.900",-0.227,0.965,-0.219,2020-02-08 18:04:09.900
"2/8/2020 18:04:09.913",-0.223,0.945,-0.203,2020-02-08 18:04:09.913
"2/8/2020 18:04:09.925",-0.176,0.934,-0.238,2020-02-08 18:04:09.924
"2/8/2020 18:04:09.938",-0.211,0.922,-0.285,2020-02-08 18:04:09.937
"2/8/2020 18:04:09.950",-0.289,0.902,-0.258,2020-02-08 18:04:09.950
"2/8/2020 18:04:09.963",-0.32,0.918,-0.191,2020-02-08 18:04:09.963
"2/8/2020 18:04:09.975",-0.367,0.922,-0.133,2020-02-08 18:04:09.974
"2/8/2020 18:04:09.988",-0.434,0.91,-0.098,2020-02-08 18:04:09.987
"2/8/2020 18:04:10.000",-0.453,0.887,-0.121,2020-02-08 18:04:10.000
"2/8/2020 18:04:10.013",-0.473,0.883,-0.203,2020-02-08 18:04:10.013
"2/8/2020 18:04:10.025",-0.449,0.855,-0.258,2020-02-08 18:04:10.025
"2/8/2020 18:04:10.038",-0.336,0.859,-0.293,2020-02-08 18:04:10.038
"2/8/2020 18:04:10.050",-0.266,0.875,-0.293,2020-02-08 18:04:10.049
"2/8/2020 18:04:10.063",-0.254,0.902,-0.293,2020-02-08 18:04:10.062
"2/8/2020 18:04:10.075",-0.266,0.918,-0.262,2020-02-08 18:04:10.075
"2/8/2020 18:04:10.088",-0.258,0.922,-0.238,2020-02-08 18:04:10.088
"2/8/2020 18:04:10.100",-0.242,0.93,-0.227,2020-02-08 18:04:10.099
"2/8/2020 18:04:10.113",-0.25,0.926,-0.258,2020-02-08 18:04:10.112
"2/8/2020 18:04:10.125",-0.281,0.895,-0.281,2020-02-08 18:04:10.125
"2/8/2020 18:04:10.138",-0.266,0.871,-0.336,2020-02-08 18:04:10.138
"2/8/2020 18:04:10.150",-0.188,0.887,-0.414,2020-02-08 18:04:10.150
"2/8/2020 18:04:10.163",-0.113,0.891,-0.488,2020-02-08 18:04:10.163
"2/8/2020 18:04:10.175",-0.074,0.898,-0.488,2020-02-08 18:04:10.174
"2/8/2020 18:04:10.188",-0.008,0.914,-0.512,2020-02-08 18:04:10.187
"2/8/2020 18:04:10.200",-0.004,0.938,-0.504,2020-02-08 18:04:10.200
"2/8/2020 18:04:10.213",-0.043,0.93,-0.469,2020-02-08 18:04:10.213
"2/8/2020 18:04:10.225",-0.082,0.918,-0.422,2020-02-08 18:04:10.224
"2/8/2020 18:04:10.238",-0.105,0.922,-0.387,2020-02-08 18:04:10.237
"2/8/2020 18:04:10.250",-0.125,0.945,-0.379,2020-02-08 18:04:10.250
"2/8/2020 18:04:10.263",-0.09,0.996,-0.383,2020-02-08 18:04:10.263
"2/8/2020 18:04:10.275",-0.023,1.039,-0.398,2020-02-08 18:04:10.275
"2/8/2020 18:04:10.288",0.047,1.078,-0.398,2020-02-08 18:04:10.288
"2/8/2020 18:04:10.300",0.086,1.109,-0.379,2020-02-08 18:04:10.299
"2/8/2020 18:04:10.313",0.117,1.113,-0.328,2020-02-08 18:04:10.312
"2/8/2020 18:04:10.325",0.172,1.137,-0.246,2020-02-08 18:04:10.325
"2/8/2020 18:04:10.338",0.262,1.191,-0.148,2020-02-08 18:04:10.338
"2/8/2020 18:04:10.350",0.246,1.246,-0.105,2020-02-08 18:04:10.349
"2/8/2020 18:04:10.363",0.051,1.242,-0.133,2020-02-08 18:04:10.362
"2/8/2020 18:04:10.375",-0.125,1.238,-0.23,2020-02-08 18:04:10.375
"2/8/2020 18:04:10.388",-0.191,1.254,-0.402,2020-02-08 18:04:10.388
"2/8/2020 18:04:10.400",-0.121,1.188,-0.531,2020-02-08 18:04:10.400
"2/8/2020 18:04:10.413",-0.066,0.996,-0.555,2020-02-08 18:04:10.413
"2/8/2020 18:04:10.425",-0.039,0.809,-0.574,2020-02-08 18:04:10.424
"2/8/2020 18:04:10.438",0.031,0.672,-0.602,2020-02-08 18:04:10.437
"2/8/2020 18:04:10.450",0.324,0.578,-0.473,2020-02-08 18:04:10.450
"2/8/2020 18:04:10.463",0.688,0.391,-0.047,2020-02-08 18:04:10.463
"2/8/2020 18:04:10.475",0.805,0.277,0.445,2020-02-08 18:04:10.474
"2/8/2020 18:04:10.488",0.613,0.383,0.809,2020-02-08 18:04:10.487
"2/8/2020 18:04:10.500",0.055,0.563,0.965,2020-02-08 18:04:10.500
"2/8/2020 18:04:10.513",-0.664,0.754,0.781,2020-02-08 18:04:10.513
"2/8/2020 18:04:10.525",-1.289,0.98,0.438,2020-02-08 18:04:10.525
"2/8/2020 18:04:10.538",-1.566,1.055,0.207,2020-02-08 18:04:10.538
"2/8/2020 18:04:10.550",-1.68,0.711,0.984,2020-02-08 18:04:10.549
"2/8/2020 18:04:10.563",-1.098,0.895,2.086,2020-02-08 18:04:10.562
"2/8/2020 18:04:10.575",-0.766,1.504,1.41,2020-02-08 18:04:10.575
"2/8/2020 18:04:10.588",-0.445,1.418,0.309,2020-02-08 18:04:10.588
"2/8/2020 18:04:10.600",0.109,1.133,-0.254,2020-02-08 18:04:10.599
"2/8/2020 18:04:10.613",0.703,1.051,-0.418,2020-02-08 18:04:10.612
"2/8/2020 18:04:10.625",0.797,1.105,-0.184,2020-02-08 18:04:10.625
"2/8/2020 18:04:10.638",0.422,0.992,0.125,2020-02-08 18:04:10.638
"2/8/2020 18:04:10.650",-0.113,0.809,0.371,2020-02-08 18:04:10.650
"2/8/2020 18:04:10.663",-0.676,0.773,0.531,2020-02-08 18:04:10.663
"2/8/2020 18:04:10.675",-0.852,0.797,0.531,2020-02-08 18:04:10.674
"2/8/2020 18:04:10.688",-0.598,0.863,0.422,2020-02-08 18:04:10.687
"2/8/2020 18:04:10.700",-0.328,0.902,0.301,2020-02-08 18:04:10.700
"2/8/2020 18:04:10.713",-0.129,0.973,0.16,2020-02-08 18:04:10.713
"2/8/2020 18:04:10.725",-0.016,1.063,0.047,2020-02-08 18:04:10.724
"2/8/2020 18:04:10.738",-0.004,1.09,-0.059,2020-02-08 18:04:10.737
"2/8/2020 18:04:10.750",-0.078,1.031,-0.098,2020-02-08 18:04:10.750
"2/8/2020 18:04:10.763",-0.195,0.93,-0.102,2020-02-08 18:04:10.763
"2/8/2020 18:04:10.775",-0.258,0.895,-0.082,2020-02-08 18:04:10.775
"2/8/2020 18:04:10.788",-0.289,0.875,-0.059,2020-02-08 18:04:10.788
"2/8/2020 18:04:10.800",-0.285,0.883,-0.047,2020-02-08 18:04:10.799
"2/8/2020 18:04:10.813",-0.262,0.898,-0.023,2020-02-08 18:04:10.812
"2/8/2020 18:04:10.825",-0.258,0.93,-0.012,2020-02-08 18:04:10.825
"2/8/2020 18:04:10.838",-0.203,1.008,0.008,2020-02-08 18:04:10.838
"2/8/2020 18:04:10.850",-0.184,1.004,0.035,2020-02-08 18:04:10.849
"2/8/2020 18:04:10.863",-0.18,0.977,0.043,2020-02-08 18:04:10.862
"2/8/2020 18:04:10.875",-0.184,0.973,0.031,2020-02-08 18:04:10.875
"2/8/2020 18:04:10.888",-0.152,0.992,0.031,2020-02-08 18:04:10.888
"2/8/2020 18:04:10.900",-0.102,0.996,0.047,2020-02-08 18:04:10.900
"2/8/2020 18:04:10.913",-0.109,0.98,0.055,2020-02-08 18:04:10.913
"2/8/2020 18:04:10.925",-0.133,0.98,0.109,2020-02-08 18:04:10.924
"2/8/2020 18:04:10.938",-0.133,0.996,0.125,2020-02-08 18:04:10.937
"2/8/2020 18:04:10.950",-0.078,1.031,0.074,2020-02-08 18:04:10.950
"2/8/2020 18:04:10.963",0.012,1.078,0.02,2020-02-08 18:04:10.963
"2/8/2020 18:04:10.975",0.059,1.129,-0.082,2020-02-08 18:04:10.974
"2/8/2020 18:04:10.988",0.133,1.195,-0.148,2020-02-08 18:04:10.987
"2/8/2020 18:04:11.000",0.164,1.258,-0.188,2020-02-08 18:04:11.000
"2/8/2020 18:04:11.013",0.234,1.367,-0.156,2020-02-08 18:04:11.013
"2/8/2020 18:04:11.025",0.254,1.605,-0.141,2020-02-08 18:04:11.025
"2/8/2020 18:04:11.038",0.191,1.875,-0.098,2020-02-08 18:04:11.038
"2/8/2020 18:04:11.050",0.031,2.164,-0.082,2020-02-08 18:04:11.049
"2/8/2020 18:04:11.063",0.02,2.406,-0.078,2020-02-08 18:04:11.062
"2/8/2020 18:04:11.075",0.199,2.453,-0.063,2020-02-08 18:04:11.075
"2/8/2020 18:04:11.088",0.406,2.043,-0.117,2020-02-08 18:04:11.088
"2/8/2020 18:04:11.100",0.258,1.336,-0.234,2020-02-08 18:04:11.099
"2/8/2020 18:04:11.113",-0.117,0.723,-0.508,2020-02-08 18:04:11.112
"2/8/2020 18:04:11.125",-0.695,0.191,-0.875,2020-02-08 18:04:11.125
"2/8/2020 18:04:11.138",-1.02,-0.309,-0.66,2020-02-08 18:04:11.138
"2/8/2020 18:04:11.150",-0.715,-0.348,0.02,2020-02-08 18:04:11.150
"2/8/2020 18:04:11.163",-0.031,0.141,0.063,2020-02-08 18:04:11.163
"2/8/2020 18:04:11.175",0.434,0.504,-0.344,2020-02-08 18:04:11.174
"2/8/2020 18:04:11.188",0.684,0.578,-0.551,2020-02-08 18:04:11.187
"2/8/2020 18:04:11.200",0.867,0.555,-0.594,2020-02-08 18:04:11.200
"2/8/2020 18:04:11.213",0.996,0.629,-0.648,2020-02-08 18:04:11.213
"2/8/2020 18:04:11.225",1.039,0.758,-0.789,2020-02-08 18:04:11.224
"2/8/2020 18:04:11.238",0.945,0.934,-0.836,2020-02-08 18:04:11.237
"2/8/2020 18:04:11.250",0.656,1.113,-0.832,2020-02-08 18:04:11.250
"2/8/2020 18:04:11.263",0.406,1.258,-0.805,2020-02-08 18:04:11.263
"2/8/2020 18:04:11.275",0.199,1.473,-0.859,2020-02-08 18:04:11.275
"2/8/2020 18:04:11.288",-0.008,1.582,-1.016,2020-02-08 18:04:11.288
"2/8/2020 18:04:11.300",-0.07,1.527,-1.008,2020-02-08 18:04:11.299
"2/8/2020 18:04:11.313",-0.109,1.43,-0.875,2020-02-08 18:04:11.312
"2/8/2020 18:04:11.325",-0.113,1.355,-0.773,2020-02-08 18:04:11.325
"2/8/2020 18:04:11.338",0.074,1.383,-0.75,2020-02-08 18:04:11.338
"2/8/2020 18:04:11.350",0.328,1.508,-0.836,2020-02-08 18:04:11.349
"2/8/2020 18:04:11.363",0.625,1.688,-0.934,2020-02-08 18:04:11.362
"2/8/2020 18:04:11.375",0.836,1.797,-1.055,2020-02-08 18:04:11.375
"2/8/2020 18:04:11.388",0.824,1.766,-1.133,2020-02-08 18:04:11.388
"2/8/2020 18:04:11.400",0.625,1.641,-1.156,2020-02-08 18:04:11.400
"2/8/2020 18:04:11.413",0.211,1.543,-1.203,2020-02-08 18:04:11.413
"2/8/2020 18:04:11.425",-0.523,1.563,-1.324,2020-02-08 18:04:11.424
"2/8/2020 18:04:11.438",-1.457,1.531,-1.441,2020-02-08 18:04:11.437
"2/8/2020 18:04:11.450",-2.004,1.25,-1.332,2020-02-08 18:04:11.450
"2/8/2020 18:04:11.463",-1.859,0.777,-1.004,2020-02-08 18:04:11.463
"2/8/2020 18:04:11.475",-0.918,0.496,-0.578,2020-02-08 18:04:11.474
"2/8/2020 18:04:11.488",0.633,0.344,-0.391,2020-02-08 18:04:11.487
"2/8/2020 18:04:11.500",1.246,0.91,-0.52,2020-02-08 18:04:11.500
"2/8/2020 18:04:11.513",0.98,1.5,-0.43,2020-02-08 18:04:11.513
"2/8/2020 18:04:11.525",0.293,1.551,0.055,2020-02-08 18:04:11.525
"2/8/2020 18:04:11.538",-0.328,1.344,0.473,2020-02-08 18:04:11.538
"2/8/2020 18:04:11.550",-0.586,0.996,0.555,2020-02-08 18:04:11.549
"2/8/2020 18:04:11.563",-0.527,0.875,0.293,2020-02-08 18:04:11.562
"2/8/2020 18:04:11.575",-0.25,0.902,-0.043,2020-02-08 18:04:11.575
"2/8/2020 18:04:11.588",-0.219,0.867,-0.219,2020-02-08 18:04:11.588
"2/8/2020 18:04:11.600",-0.086,0.961,-0.273,2020-02-08 18:04:11.599
"2/8/2020 18:04:11.613",0.121,0.992,-0.316,2020-02-08 18:04:11.612
"2/8/2020 18:04:11.625",0.227,0.984,-0.293,2020-02-08 18:04:11.625
"2/8/2020 18:04:11.638",0.004,0.969,-0.148,2020-02-08 18:04:11.638
"2/8/2020 18:04:11.650",-0.293,0.934,-0.09,2020-02-08 18:04:11.650
"2/8/2020 18:04:11.663",-0.434,0.938,-0.094,2020-02-08 18:04:11.663
"2/8/2020 18:04:11.675",-0.426,0.922,-0.109,2020-02-08 18:04:11.674
"2/8/2020 18:04:11.688",-0.418,0.914,-0.07,2020-02-08 18:04:11.687
"2/8/2020 18:04:11.700",-0.426,0.883,-0.078,2020-02-08 18:04:11.700
"2/8/2020 18:04:11.713",-0.344,0.898,-0.098,2020-02-08 18:04:11.713
"2/8/2020 18:04:11.725",-0.184,0.969,-0.125,2020-02-08 18:04:11.724
"2/8/2020 18:04:11.738",-0.086,0.992,-0.098,2020-02-08 18:04:11.737
"2/8/2020 18:04:11.750",-0.168,0.973,-0.023,2020-02-08 18:04:11.750
"2/8/2020 18:04:11.763",-0.293,0.949,0.051,2020-02-08 18:04:11.763
"2/8/2020 18:04:11.775",-0.594,0.871,0.281,2020-02-08 18:04:11.775
"2/8/2020 18:04:11.788",-0.992,0.797,0.652,2020-02-08 18:04:11.788
"2/8/2020 18:04:11.800",-1.211,0.762,1.066,2020-02-08 18:04:11.799
"2/8/2020 18:04:11.813",-1.199,0.785,1.313,2020-02-08 18:04:11.812
"2/8/2020 18:04:11.825",-1.066,0.91,1.199,2020-02-08 18:04:11.825
"2/8/2020 18:04:11.838",-0.801,1.016,0.762,2020-02-08 18:04:11.838
"2/8/2020 18:04:11.850",-0.441,1.156,0.254,2020-02-08 18:04:11.849
"2/8/2020 18:04:11.863",-0.125,1.227,-0.25,2020-02-08 18:04:11.862
"2/8/2020 18:04:11.875",0.234,1.184,-0.582,2020-02-08 18:04:11.875
"2/8/2020 18:04:11.888",0.582,1.102,-0.863,2020-02-08 18:04:11.888
"2/8/2020 18:04:11.900",0.586,1.004,-1.125,2020-02-08 18:04:11.900
"2/8/2020 18:04:11.913",0.59,0.938,-1.188,2020-02-08 18:04:11.913
"2/8/2020 18:04:11.925",0.52,0.879,-1.125,2020-02-08 18:04:11.924
"2/8/2020 18:04:11.938",0.34,0.84,-0.883,2020-02-08 18:04:11.937
"2/8/2020 18:04:11.950",0.055,0.816,-0.59,2020-02-08 18:04:11.950
"2/8/2020 18:04:11.963",-0.285,0.793,-0.227,2020-02-08 18:04:11.963
"2/8/2020 18:04:11.975",-0.559,0.805,0.137,2020-02-08 18:04:11.974
"2/8/2020 18:04:11.988",-0.742,0.891,0.355,2020-02-08 18:04:11.987
"2/8/2020 18:04:12.000",-0.719,1.012,0.371,2020-02-08 18:04:12.000
"2/8/2020 18:04:12.013",-0.559,1.121,0.266,2020-02-08 18:04:12.013
"2/8/2020 18:04:12.025",-0.355,1.184,0.078,2020-02-08 18:04:12.025
"2/8/2020 18:04:12.038",-0.133,1.316,-0.008,2020-02-08 18:04:12.038
"2/8/2020 18:04:12.050",-0.016,1.402,0.043,2020-02-08 18:04:12.049
"2/8/2020 18:04:12.063",-0.07,1.465,0.203,2020-02-08 18:04:12.062
"2/8/2020 18:04:12.075",-0.258,1.488,0.426,2020-02-08 18:04:12.075
"2/8/2020 18:04:12.088",-0.531,1.504,0.68,2020-02-08 18:04:12.088
"2/8/2020 18:04:12.100",-0.754,1.559,1.027,2020-02-08 18:04:12.099
"2/8/2020 18:04:12.113",-0.699,1.668,1.477,2020-02-08 18:04:12.112
"2/8/2020 18:04:12.125",-0.309,1.887,1.977,2020-02-08 18:04:12.125
"2/8/2020 18:04:12.138",0.191,1.863,2.344,2020-02-08 18:04:12.138
"2/8/2020 18:04:12.150",0.461,1.574,1.941,2020-02-08 18:04:12.150
"2/8/2020 18:04:12.163",0.004,1.273,0.711,2020-02-08 18:04:12.163
"2/8/2020 18:04:12.175",-0.383,0.875,-0.039,2020-02-08 18:04:12.174
"2/8/2020 18:04:12.188",-0.242,0.918,0.051,2020-02-08 18:04:12.187
"2/8/2020 18:04:12.200",0.367,1.316,-0.066,2020-02-08 18:04:12.200
"2/8/2020 18:04:12.213",0.734,1.625,-0.938,2020-02-08 18:04:12.213
"2/8/2020 18:04:12.225",0.613,1.691,-1.453,2020-02-08 18:04:12.224
"2/8/2020 18:04:12.238",0.691,1.523,-1.633,2020-02-08 18:04:12.237
"2/8/2020 18:04:12.250",1.172,1.621,-1.676,2020-02-08 18:04:12.250
"2/8/2020 18:04:12.263",1.461,1.566,-1.363,2020-02-08 18:04:12.263
"2/8/2020 18:04:12.275",1.219,1.305,-1.168,2020-02-08 18:04:12.275
"2/8/2020 18:04:12.288",0.91,1.121,-1.035,2020-02-08 18:04:12.288
"2/8/2020 18:04:12.300",0.68,0.953,-1.07,2020-02-08 18:04:12.299
"2/8/2020 18:04:12.313",0.484,0.742,-1.219,2020-02-08 18:04:12.312
"2/8/2020 18:04:12.325",0.457,0.504,-1.074,2020-02-08 18:04:12.325
"2/8/2020 18:04:12.338",0.43,0.391,-0.707,2020-02-08 18:04:12.338
"2/8/2020 18:04:12.350",0.23,0.41,-0.348,2020-02-08 18:04:12.349
"2/8/2020 18:04:12.363",-0.148,0.605,-0.152,2020-02-08 18:04:12.362
"2/8/2020 18:04:12.375",-0.5,0.922,-0.152,2020-02-08 18:04:12.375
"2/8/2020 18:04:12.388",-0.656,1.113,-0.211,2020-02-08 18:04:12.388
"2/8/2020 18:04:12.400",-0.645,1.16,-0.309,2020-02-08 18:04:12.400
"2/8/2020 18:04:12.413",-0.508,1.113,-0.367,2020-02-08 18:04:12.413
"2/8/2020 18:04:12.425",-0.211,1.105,-0.352,2020-02-08 18:04:12.424
"2/8/2020 18:04:12.438",0.078,1.199,-0.398,2020-02-08 18:04:12.437
"2/8/2020 18:04:12.450",0.313,1.34,-0.508,2020-02-08 18:04:12.450
"2/8/2020 18:04:12.463",0.555,1.445,-0.598,2020-02-08 18:04:12.463
"2/8/2020 18:04:12.475",0.703,1.617,-0.598,2020-02-08 18:04:12.474
"2/8/2020 18:04:12.488",0.602,1.813,-0.66,2020-02-08 18:04:12.487
"2/8/2020 18:04:12.500",0.41,1.859,-0.797,2020-02-08 18:04:12.500
"2/8/2020 18:04:12.513",0.301,1.781,-0.934,2020-02-08 18:04:12.513
"2/8/2020 18:04:12.525",0.277,1.656,-1.074,2020-02-08 18:04:12.525
"2/8/2020 18:04:12.538",0.34,1.418,-1.215,2020-02-08 18:04:12.538
"2/8/2020 18:04:12.550",0.48,1.027,-1.27,2020-02-08 18:04:12.549
"2/8/2020 18:04:12.563",0.711,0.508,-1.219,2020-02-08 18:04:12.562
"2/8/2020 18:04:12.575",0.996,0.086,-1.117,2020-02-08 18:04:12.575
"2/8/2020 18:04:12.588",1.238,0.066,-1.18,2020-02-08 18:04:12.588
"2/8/2020 18:04:12.600",0.93,1.227,-2.434,2020-02-08 18:04:12.599
"2/8/2020 18:04:12.613",-1.328,3.098,-2.48,2020-02-08 18:04:12.612
"2/8/2020 18:04:12.625",-1.434,1.121,-3.473,2020-02-08 18:04:12.625
"2/8/2020 18:04:12.638",1.105,-1.25,1.121,2020-02-08 18:04:12.638
"2/8/2020 18:04:12.650",1.918,0.41,1.949,2020-02-08 18:04:12.650
"2/8/2020 18:04:12.663",-0.027,0.84,0.383,2020-02-08 18:04:12.663
"2/8/2020 18:04:12.675",-1.18,1.414,-0.098,2020-02-08 18:04:12.674
"2/8/2020 18:04:12.688",-1.266,1.16,-0.297,2020-02-08 18:04:12.687
"2/8/2020 18:04:12.700",-0.18,1.105,-0.313,2020-02-08 18:04:12.700
"2/8/2020 18:04:12.713",-0.066,0.781,-0.273,2020-02-08 18:04:12.713
"2/8/2020 18:04:12.725",0.004,0.887,-0.184,2020-02-08 18:04:12.724
"2/8/2020 18:04:12.738",0.066,1.055,-0.102,2020-02-08 18:04:12.737
"2/8/2020 18:04:12.750",-0.066,1.09,0.301,2020-02-08 18:04:12.750
"2/8/2020 18:04:12.763",-0.426,0.98,0.965,2020-02-08 18:04:12.763
"2/8/2020 18:04:12.775",-0.598,1.141,1.32,2020-02-08 18:04:12.775
"2/8/2020 18:04:12.788",-0.621,1.516,1.363,2020-02-08 18:04:12.788
"2/8/2020 18:04:12.800",-0.406,1.891,1.281,2020-02-08 18:04:12.799
"2/8/2020 18:04:12.813",-0.039,2.195,1.23,2020-02-08 18:04:12.812
"2/8/2020 18:04:12.825",0.16,2.383,1.266,2020-02-08 18:04:12.825
"2/8/2020 18:04:12.838",0.211,2.469,1.27,2020-02-08 18:04:12.838
"2/8/2020 18:04:12.850",0.172,2.551,1.102,2020-02-08 18:04:12.849
"2/8/2020 18:04:12.863",0.566,2.645,0.965,2020-02-08 18:04:12.862
"2/8/2020 18:04:12.875",0.785,2.516,0.512,2020-02-08 18:04:12.875
"2/8/2020 18:04:12.888",0.801,2.051,0.172,2020-02-08 18:04:12.888
"2/8/2020 18:04:12.900",1.445,1.922,0.109,2020-02-08 18:04:12.900
"2/8/2020 18:04:12.913",2.254,2.027,-0.164,2020-02-08 18:04:12.913
"2/8/2020 18:04:12.925",2.578,2.059,-0.828,2020-02-08 18:04:12.924
"2/8/2020 18:04:12.938",2.422,1.789,-1.23,2020-02-08 18:04:12.937
"2/8/2020 18:04:12.950",2.18,1.602,-1.289,2020-02-08 18:04:12.950
"2/8/2020 18:04:12.963",1.906,1.504,-1.289,2020-02-08 18:04:12.963
"2/8/2020 18:04:12.975",1.535,1.523,-1.219,2020-02-08 18:04:12.974
"2/8/2020 18:04:12.988",1.086,1.652,-1.152,2020-02-08 18:04:12.987
"2/8/2020 18:04:13.000",0.605,1.879,-1.195,2020-02-08 18:04:13.000
"2/8/2020 18:04:13.013",0.336,1.902,-1.328,2020-02-08 18:04:13.013
"2/8/2020 18:04:13.025",0.254,1.742,-1.461,2020-02-08 18:04:13.025
"2/8/2020 18:04:13.038",0.371,1.566,-1.426,2020-02-08 18:04:13.038
"2/8/2020 18:04:13.050",0.613,1.52,-1.273,2020-02-08 18:04:13.049
"2/8/2020 18:04:13.063",0.813,1.512,-1.203,2020-02-08 18:04:13.062
"2/8/2020 18:04:13.075",1.074,1.418,-1.211,2020-02-08 18:04:13.075
"2/8/2020 18:04:13.088",1.465,1.164,-1.25,2020-02-08 18:04:13.088
"2/8/2020 18:04:13.100",1.828,0.828,-1.316,2020-02-08 18:04:13.099
"2/8/2020 18:04:13.113",1.887,0.598,-1.305,2020-02-08 18:04:13.112
"2/8/2020 18:04:13.125",1.508,0.922,-1.273,2020-02-08 18:04:13.125
"2/8/2020 18:04:13.138",0.746,1.727,-1.414,2020-02-08 18:04:13.138
"2/8/2020 18:04:13.150",-1.195,3.313,-3.133,2020-02-08 18:04:13.150
"2/8/2020 18:04:13.163",-2.23,1.848,-3.602,2020-02-08 18:04:13.163
"2/8/2020 18:04:13.175",-0.676,-1.547,-0.773,2020-02-08 18:04:13.174
"2/8/2020 18:04:13.188",3.563,-1.348,1.258,2020-02-08 18:04:13.187
"2/8/2020 18:04:13.200",1.324,0.434,0.027,2020-02-08 18:04:13.200
"2/8/2020 18:04:13.213",0.488,1.957,-0.625,2020-02-08 18:04:13.213
"2/8/2020 18:04:13.225",-1.695,1.594,-0.121,2020-02-08 18:04:13.224
"2/8/2020 18:04:13.238",-0.766,0.984,0.039,2020-02-08 18:04:13.237
"2/8/2020 18:04:13.250",-0.633,0.773,0.09,2020-02-08 18:04:13.250
"2/8/2020 18:04:13.263",-0.293,0.777,0.184,2020-02-08 18:04:13.263
"2/8/2020 18:04:13.275",-0.441,0.656,0.797,2020-02-08 18:04:13.275
"2/8/2020 18:04:13.288",-1.242,0.672,1.375,2020-02-08 18:04:13.288
"2/8/2020 18:04:13.300",-1.223,1.07,1.41,2020-02-08 18:04:13.299
"2/8/2020 18:04:13.313",-0.574,1.555,1.164,2020-02-08 18:04:13.312
"2/8/2020 18:04:13.325",0.016,1.949,0.934,2020-02-08 18:04:13.325
"2/8/2020 18:04:13.338",0.34,2.176,0.824,2020-02-08 18:04:13.338
"2/8/2020 18:04:13.350",0.395,2.223,0.836,2020-02-08 18:04:13.349
"2/8/2020 18:04:13.363",0.137,2.055,0.77,2020-02-08 18:04:13.362
"2/8/2020 18:04:13.375",-0.031,1.98,0.809,2020-02-08 18:04:13.375
"2/8/2020 18:04:13.388",0.125,2.109,0.922,2020-02-08 18:04:13.388
"2/8/2020 18:04:13.400",0.59,2.289,1.004,2020-02-08 18:04:13.400
"2/8/2020 18:04:13.413",0.813,2.234,0.719,2020-02-08 18:04:13.413
"2/8/2020 18:04:13.425",0.332,1.949,0.16,2020-02-08 18:04:13.424
"2/8/2020 18:04:13.438",0.195,1.629,0.016,2020-02-08 18:04:13.437
"2/8/2020 18:04:13.450",0.605,1.59,0.25,2020-02-08 18:04:13.450
"2/8/2020 18:04:13.463",1.301,1.656,0.199,2020-02-08 18:04:13.463
"2/8/2020 18:04:13.475",2.094,1.719,-0.07,2020-02-08 18:04:13.474
"2/8/2020 18:04:13.488",1.996,1.512,-0.262,2020-02-08 18:04:13.487
"2/8/2020 18:04:13.500",1.645,1.215,-0.234,2020-02-08 18:04:13.500
"2/8/2020 18:04:13.513",1.418,1.105,-0.023,2020-02-08 18:04:13.513
"2/8/2020 18:04:13.525",1.117,1.105,0.125,2020-02-08 18:04:13.525
"2/8/2020 18:04:13.538",0.742,1.102,0.215,2020-02-08 18:04:13.538
"2/8/2020 18:04:13.550",0.395,1.207,0.18,2020-02-08 18:04:13.549
"2/8/2020 18:04:13.563",-0.047,1.328,-0.066,2020-02-08 18:04:13.562
"2/8/2020 18:04:13.575",-0.383,1.266,-0.352,2020-02-08 18:04:13.575
"2/8/2020 18:04:13.588",-0.469,1.07,-0.566,2020-02-08 18:04:13.588
"2/8/2020 18:04:13.600",-0.219,0.852,-0.711,2020-02-08 18:04:13.599
"2/8/2020 18:04:13.613",0.277,0.617,-0.777,2020-02-08 18:04:13.612
"2/8/2020 18:04:13.625",0.926,0.332,-0.855,2020-02-08 18:04:13.625
"2/8/2020 18:04:13.638",1.582,0.309,-0.969,2020-02-08 18:04:13.638
"2/8/2020 18:04:13.650",1.383,0.977,-1.492,2020-02-08 18:04:13.650
"2/8/2020 18:04:13.663",-0.902,2.684,-1.77,2020-02-08 18:04:13.663
"2/8/2020 18:04:13.675",-0.074,-0.328,-4.129,2020-02-08 18:04:13.674
"2/8/2020 18:04:13.688",3.012,-2.5,-0.902,2020-02-08 18:04:13.687
"2/8/2020 18:04:13.700",2.781,0.039,1.555,2020-02-08 18:04:13.700
"2/8/2020 18:04:13.713",0.59,1.012,0.23,2020-02-08 18:04:13.713
"2/8/2020 18:04:13.725",-0.953,1.488,-0.438,2020-02-08 18:04:13.724
"2/8/2020 18:04:13.738",-0.297,1.699,-0.336,2020-02-08 18:04:13.737
"2/8/2020 18:04:13.750",-0.102,1.344,-0.23,2020-02-08 18:04:13.750
"2/8/2020 18:04:13.763",-0.262,0.859,-0.047,2020-02-08 18:04:13.763
"2/8/2020 18:04:13.775",-0.398,0.816,0.023,2020-02-08 18:04:13.775
"2/8/2020 18:04:13.788",-0.496,0.777,-0.023,2020-02-08 18:04:13.788
"2/8/2020 18:04:13.800",-0.473,0.965,0.086,2020-02-08 18:04:13.799
"2/8/2020 18:04:13.813",-0.289,1.18,0.465,2020-02-08 18:04:13.812
"2/8/2020 18:04:13.825",-0.586,1.004,1.316,2020-02-08 18:04:13.825
"2/8/2020 18:04:13.838",-0.695,1.277,1.473,2020-02-08 18:04:13.838
"2/8/2020 18:04:13.850",-0.336,1.723,1.332,2020-02-08 18:04:13.849
"2/8/2020 18:04:13.863",0.047,2.059,1.191,2020-02-08 18:04:13.862
"2/8/2020 18:04:13.875",0.008,2.117,1.117,2020-02-08 18:04:13.875
"2/8/2020 18:04:13.888",-0.227,2.09,1.203,2020-02-08 18:04:13.888
"2/8/2020 18:04:13.900",-0.133,2.047,1.238,2020-02-08 18:04:13.900
"2/8/2020 18:04:13.913",0.004,1.859,1.145,2020-02-08 18:04:13.913
"2/8/2020 18:04:13.925",0.422,1.84,0.82,2020-02-08 18:04:13.924
"2/8/2020 18:04:13.938",0.66,1.781,0.367,2020-02-08 18:04:13.937
"2/8/2020 18:04:13.950",0.875,1.629,0.254,2020-02-08 18:04:13.950
"2/8/2020 18:04:13.963",1.418,1.91,0.059,2020-02-08 18:04:13.963
"2/8/2020 18:04:13.975",1.891,2.156,-0.488,2020-02-08 18:04:13.974
"2/8/2020 18:04:13.988",1.973,2.109,-0.871,2020-02-08 18:04:13.987
"2/8/2020 18:04:14.000",1.805,1.84,-1.027,2020-02-08 18:04:14.000
"2/8/2020 18:04:14.013",1.539,1.625,-1.016,2020-02-08 18:04:14.013
"2/8/2020 18:04:14.025",1.152,1.457,-0.973,2020-02-08 18:04:14.025
"2/8/2020 18:04:14.038",0.66,1.297,-0.84,2020-02-08 18:04:14.038
"2/8/2020 18:04:14.050",0.168,1.227,-0.586,2020-02-08 18:04:14.049
"2/8/2020 18:04:14.063",-0.168,1.297,-0.445,2020-02-08 18:04:14.062
"2/8/2020 18:04:14.075",-0.203,1.398,-0.508,2020-02-08 18:04:14.075
"2/8/2020 18:04:14.088",-0.082,1.285,-0.68,2020-02-08 18:04:14.088
"2/8/2020 18:04:14.100",0.121,1.117,-0.801,2020-02-08 18:04:14.099
"2/8/2020 18:04:14.113",0.434,0.977,-0.836,2020-02-08 18:04:14.112
"2/8/2020 18:04:14.125",0.773,0.879,-0.785,2020-02-08 18:04:14.125
"2/8/2020 18:04:14.138",1.168,0.758,-0.723,2020-02-08 18:04:14.138
"2/8/2020 18:04:14.150",1.465,0.508,-0.699,2020-02-08 18:04:14.150
"2/8/2020 18:04:14.163",1.668,0.16,-0.57,2020-02-08 18:04:14.163
"2/8/2020 18:04:14.175",1.871,0.016,-0.336,2020-02-08 18:04:14.174
"2/8/2020 18:04:14.188",1.758,0.258,-0.184,2020-02-08 18:04:14.187
"2/8/2020 18:04:14.200",1.402,0.844,-0.004,2020-02-08 18:04:14.200
"2/8/2020 18:04:14.213",0.523,2.406,-1.469,2020-02-08 18:04:14.213
"2/8/2020 18:04:14.225",0.852,5.309,-0.387,2020-02-08 18:04:14.224
"2/8/2020 18:04:14.238",-0.496,0.227,-1.684,2020-02-08 18:04:14.237
"2/8/2020 18:04:14.250",0.551,-1.18,0.402,2020-02-08 18:04:14.250
"2/8/2020 18:04:14.263",2.547,-0.309,0.523,2020-02-08 18:04:14.263
"2/8/2020 18:04:14.275",1.316,0.586,-0.391,2020-02-08 18:04:14.275
"2/8/2020 18:04:14.288",0.168,1.324,-0.547,2020-02-08 18:04:14.288
"2/8/2020 18:04:14.300",-0.297,1.598,-0.23,2020-02-08 18:04:14.299
"2/8/2020 18:04:14.313",-0.734,1.543,0.078,2020-02-08 18:04:14.312
"2/8/2020 18:04:14.325",-0.832,1.07,0.332,2020-02-08 18:04:14.325
"2/8/2020 18:04:14.338",-0.684,0.59,0.16,2020-02-08 18:04:14.338
"2/8/2020 18:04:14.350",-0.23,0.488,-0.059,2020-02-08 18:04:14.349
"2/8/2020 18:04:14.363",-0.063,0.727,-0.23,2020-02-08 18:04:14.362
"2/8/2020 18:04:14.375",0.035,1.082,-0.16,2020-02-08 18:04:14.375
"2/8/2020 18:04:14.388",-0.023,1.219,-0.098,2020-02-08 18:04:14.388
"2/8/2020 18:04:14.400",-0.066,1.074,0.004,2020-02-08 18:04:14.400
"2/8/2020 18:04:14.413",-0.25,0.824,0.074,2020-02-08 18:04:14.413
"2/8/2020 18:04:14.425",-0.422,0.801,0.121,2020-02-08 18:04:14.424
"2/8/2020 18:04:14.438",-0.457,0.91,0.039,2020-02-08 18:04:14.437
"2/8/2020 18:04:14.450",-0.352,0.961,0.043,2020-02-08 18:04:14.450
"2/8/2020 18:04:14.463",-0.176,0.957,0.035,2020-02-08 18:04:14.463
"2/8/2020 18:04:14.475",-0.086,0.93,0.016,2020-02-08 18:04:14.474
"2/8/2020 18:04:14.488",-0.07,0.949,-0.004,2020-02-08 18:04:14.487
"2/8/2020 18:04:14.500",-0.141,0.965,0.016,2020-02-08 18:04:14.500
"2/8/2020 18:04:14.513",-0.172,0.965,0.059,2020-02-08 18:04:14.513
"2/8/2020 18:04:14.525",-0.164,0.969,0.047,2020-02-08 18:04:14.525
"2/8/2020 18:04:14.538",-0.141,0.969,0.035,2020-02-08 18:04:14.538
"2/8/2020 18:04:14.550",-0.109,0.98,0.012,2020-02-08 18:04:14.549
"2/8/2020 18:04:14.563",-0.063,1.02,0.027,2020-02-08 18:04:14.562
"2/8/2020 18:04:14.575",-0.016,1.07,0.078,2020-02-08 18:04:14.575
"2/8/2020 18:04:14.588",-0.035,1.121,0.141,2020-02-08 18:04:14.588
"2/8/2020 18:04:14.600",-0.215,1.102,0.34,2020-02-08 18:04:14.599
"2/8/2020 18:04:14.613",-0.523,1.148,0.387,2020-02-08 18:04:14.612
"2/8/2020 18:04:14.625",-0.598,1.195,0.355,2020-02-08 18:04:14.625
"2/8/2020 18:04:14.638",-0.488,1.348,0.109,2020-02-08 18:04:14.638
"2/8/2020 18:04:14.650",-0.629,1.414,-0.242,2020-02-08 18:04:14.650
"2/8/2020 18:04:14.663",-1.152,1.336,-0.703,2020-02-08 18:04:14.663
"2/8/2020 18:04:14.675",-1.637,1.367,-1.359,2020-02-08 18:04:14.674
"2/8/2020 18:04:14.688",-2.102,1.508,-1.914,2020-02-08 18:04:14.687
"2/8/2020 18:04:14.700",-1.938,1.633,-2.234,2020-02-08 18:04:14.700
"2/8/2020 18:04:14.713",-1.5,1.621,-2.332,2020-02-08 18:04:14.713
"2/8/2020 18:04:14.725",-0.895,1.559,-2.148,2020-02-08 18:04:14.724
"2/8/2020 18:04:14.738",-0.516,1.418,-1.727,2020-02-08 18:04:14.737
"2/8/2020 18:04:14.750",-0.371,1.195,-1.195,2020-02-08 18:04:14.750
"2/8/2020 18:04:14.763",-0.34,0.934,-0.563,2020-02-08 18:04:14.763
"2/8/2020 18:04:14.775",-0.379,0.691,0.023,2020-02-08 18:04:14.775
"2/8/2020 18:04:14.788",-0.492,0.477,0.52,2020-02-08 18:04:14.788
"2/8/2020 18:04:14.800",-0.613,0.344,0.883,2020-02-08 18:04:14.799
"2/8/2020 18:04:14.813",-0.641,0.309,1.047,2020-02-08 18:04:14.812
"2/8/2020 18:04:14.825",-0.641,0.273,1.008,2020-02-08 18:04:14.825
"2/8/2020 18:04:14.838",-0.578,0.203,0.93,2020-02-08 18:04:14.838
"2/8/2020 18:04:14.850",-0.355,0.129,0.836,2020-02-08 18:04:14.849
"2/8/2020 18:04:14.863",-0.145,0.07,0.688,2020-02-08 18:04:14.862
"2/8/2020 18:04:14.875",-0.09,0.082,0.551,2020-02-08 18:04:14.875
"2/8/2020 18:04:14.888",-0.121,0.086,0.438,2020-02-08 18:04:14.888
"2/8/2020 18:04:14.900",-0.109,0.121,0.379,2020-02-08 18:04:14.900
"2/8/2020 18:04:14.913",-0.086,0.223,0.336,2020-02-08 18:04:14.913
"2/8/2020 18:04:14.925",-0.059,0.344,0.297,2020-02-08 18:04:14.924
"2/8/2020 18:04:14.938",0.117,0.398,0.25,2020-02-08 18:04:14.937
"2/8/2020 18:04:14.950",0.379,0.383,0.258,2020-02-08 18:04:14.950
"2/8/2020 18:04:14.963",0.605,0.387,0.313,2020-02-08 18:04:14.963
"2/8/2020 18:04:14.975",0.613,0.441,0.43,2020-02-08 18:04:14.974
"2/8/2020 18:04:14.988",0.602,0.461,0.551,2020-02-08 18:04:14.987
"2/8/2020 18:04:15.000",0.574,0.516,0.75,2020-02-08 18:04:15.000
"2/8/2020 18:04:15.013",0.566,0.676,0.762,2020-02-08 18:04:15.013
"2/8/2020 18:04:15.025",-0.063,0.953,-1.676,2020-02-08 18:04:15.025
"2/8/2020 18:04:15.038",-3.207,1.98,-0.238,2020-02-08 18:04:15.038
"2/8/2020 18:04:15.050",0.602,2.484,-0.383,2020-02-08 18:04:15.049
"2/8/2020 18:04:15.063",1.906,0.109,-0.836,2020-02-08 18:04:15.062
"2/8/2020 18:04:15.075",1.211,-0.063,-1.602,2020-02-08 18:04:15.075
"2/8/2020 18:04:15.088",0.59,0.066,0.086,2020-02-08 18:04:15.088
"2/8/2020 18:04:15.100",-0.266,0.539,-0.773,2020-02-08 18:04:15.099
"2/8/2020 18:04:15.113",-0.027,0.969,-0.531,2020-02-08 18:04:15.112
"2/8/2020 18:04:15.125",-0.078,1.578,-0.5,2020-02-08 18:04:15.125
"2/8/2020 18:04:15.138",-0.273,1.66,-0.512,2020-02-08 18:04:15.138
"2/8/2020 18:04:15.150",-0.125,1.203,-0.586,2020-02-08 18:04:15.150
"2/8/2020 18:04:15.163",-0.117,0.875,-0.672,2020-02-08 18:04:15.163
"2/8/2020 18:04:15.175",-0.402,0.625,-0.648,2020-02-08 18:04:15.174
"2/8/2020 18:04:15.188",-0.633,0.527,-0.5,2020-02-08 18:04:15.187
"2/8/2020 18:04:15.200",-0.82,0.594,-0.34,2020-02-08 18:04:15.200
"2/8/2020 18:04:15.213",-0.785,0.723,-0.309,2020-02-08 18:04:15.213
"2/8/2020 18:04:15.225",-0.598,0.793,-0.395,2020-02-08 18:04:15.224
"2/8/2020 18:04:15.238",-0.391,0.828,-0.461,2020-02-08 18:04:15.237
"2/8/2020 18:04:15.250",-0.227,0.84,-0.508,2020-02-08 18:04:15.250
"2/8/2020 18:04:15.263",-0.152,0.871,-0.555,2020-02-08 18:04:15.263
"2/8/2020 18:04:15.275",-0.195,0.918,-0.582,2020-02-08 18:04:15.275
"2/8/2020 18:04:15.288",-0.285,0.949,-0.527,2020-02-08 18:04:15.288
"2/8/2020 18:04:15.300",-0.363,0.941,-0.441,2020-02-08 18:04:15.299
"2/8/2020 18:04:15.313",-0.387,0.918,-0.363,2020-02-08 18:04:15.312
"2/8/2020 18:04:15.325",-0.398,0.879,-0.332,2020-02-08 18:04:15.325
"2/8/2020 18:04:15.338",-0.418,0.836,-0.355,2020-02-08 18:04:15.338
"2/8/2020 18:04:15.350",-0.438,0.785,-0.434,2020-02-08 18:04:15.349
"2/8/2020 18:04:15.363",-0.367,0.805,-0.492,2020-02-08 18:04:15.362
"2/8/2020 18:04:15.375",-0.297,0.84,-0.527,2020-02-08 18:04:15.375
"2/8/2020 18:04:15.388",-0.313,0.848,-0.52,2020-02-08 18:04:15.388
"2/8/2020 18:04:15.400",-0.348,0.832,-0.496,2020-02-08 18:04:15.400
"2/8/2020 18:04:15.413",-0.422,0.805,-0.477,2020-02-08 18:04:15.413
"2/8/2020 18:04:15.425",-0.477,0.793,-0.457,2020-02-08 18:04:15.424
"2/8/2020 18:04:15.438",-0.465,0.789,-0.426,2020-02-08 18:04:15.437
"2/8/2020 18:04:15.450",-0.473,0.77,-0.422,2020-02-08 18:04:15.450
"2/8/2020 18:04:15.463",-0.477,0.77,-0.48,2020-02-08 18:04:15.463
"2/8/2020 18:04:15.475",-0.43,0.801,-0.566,2020-02-08 18:04:15.474
"2/8/2020 18:04:15.488",-0.348,0.832,-0.609,2020-02-08 18:04:15.487
"2/8/2020 18:04:15.500",-0.254,0.918,-0.586,2020-02-08 18:04:15.500
"2/8/2020 18:04:15.513",-0.246,0.988,-0.523,2020-02-08 18:04:15.513
"2/8/2020 18:04:15.525",-0.273,1.051,-0.449,2020-02-08 18:04:15.525
"2/8/2020 18:04:15.538",-0.273,1.102,-0.371,2020-02-08 18:04:15.538
"2/8/2020 18:04:15.550",-0.23,1.133,-0.277,2020-02-08 18:04:15.549
"2/8/2020 18:04:15.563",-0.191,1.188,-0.18,2020-02-08 18:04:15.562
"2/8/2020 18:04:15.575",-0.129,1.285,-0.059,2020-02-08 18:04:15.575
"2/8/2020 18:04:15.588",-0.027,1.422,0.117,2020-02-08 18:04:15.588
"2/8/2020 18:04:15.600",0.168,1.707,0.48,2020-02-08 18:04:15.599
"2/8/2020 18:04:15.613",0.387,1.945,0.938,2020-02-08 18:04:15.612
"2/8/2020 18:04:15.625",0.27,1.871,1.102,2020-02-08 18:04:15.625
"2/8/2020 18:04:15.638",-0.047,1.445,0.785,2020-02-08 18:04:15.638
"2/8/2020 18:04:15.650",-0.578,1.148,0.34,2020-02-08 18:04:15.650
"2/8/2020 18:04:15.663",-1.258,0.961,-0.117,2020-02-08 18:04:15.663
"2/8/2020 18:04:15.675",-2.094,0.813,-0.137,2020-02-08 18:04:15.674
"2/8/2020 18:04:15.688",-2.652,1.121,0.16,2020-02-08 18:04:15.687
"2/8/2020 18:04:15.700",-2.176,1.137,-0.07,2020-02-08 18:04:15.700
"2/8/2020 18:04:15.713",-1.164,1.008,-0.434,2020-02-08 18:04:15.713
"2/8/2020 18:04:15.725",-0.066,0.801,-0.625,2020-02-08 18:04:15.724
"2/8/2020 18:04:15.738",0.41,0.551,-0.73,2020-02-08 18:04:15.737
"2/8/2020 18:04:15.750",0.211,0.336,-0.602,2020-02-08 18:04:15.750
"2/8/2020 18:04:15.763",-0.09,0.168,-0.285,2020-02-08 18:04:15.763
"2/8/2020 18:04:15.775",-0.246,0.082,0.043,2020-02-08 18:04:15.775
"2/8/2020 18:04:15.788",-0.383,0.039,0.246,2020-02-08 18:04:15.788
"2/8/2020 18:04:15.800",-0.531,0.07,0.266,2020-02-08 18:04:15.799
"2/8/2020 18:04:15.813",-0.68,0.051,0.258,2020-02-08 18:04:15.812
"2/8/2020 18:04:15.825",-0.84,-0.031,0.242,2020-02-08 18:04:15.825
"2/8/2020 18:04:15.838",-0.883,-0.051,0.246,2020-02-08 18:04:15.838
"2/8/2020 18:04:15.850",-0.75,-0.035,0.238,2020-02-08 18:04:15.849
"2/8/2020 18:04:15.863",-0.605,0.066,0.191,2020-02-08 18:04:15.862
"2/8/2020 18:04:15.875",-0.484,0.141,0.125,2020-02-08 18:04:15.875
"2/8/2020 18:04:15.888",-0.402,0.219,0.031,2020-02-08 18:04:15.888
"2/8/2020 18:04:15.900",-0.293,0.285,-0.086,2020-02-08 18:04:15.900
"2/8/2020 18:04:15.913",-0.227,0.367,-0.156,2020-02-08 18:04:15.913
"2/8/2020 18:04:15.925",-0.273,0.43,-0.168,2020-02-08 18:04:15.924
"2/8/2020 18:04:15.938",-0.359,0.469,-0.145,2020-02-08 18:04:15.937
"2/8/2020 18:04:15.950",-0.426,0.496,-0.164,2020-02-08 18:04:15.950
"2/8/2020 18:04:15.963",-0.359,0.523,-0.27,2020-02-08 18:04:15.963
"2/8/2020 18:04:15.975",-0.172,0.504,-0.434,2020-02-08 18:04:15.974
"2/8/2020 18:04:15.988",0.156,0.406,-0.543,2020-02-08 18:04:15.987
"2/8/2020 18:04:16.000",0.438,0.285,-0.578,2020-02-08 18:04:16.000
"2/8/2020 18:04:16.013",0.48,0.184,-0.504,2020-02-08 18:04:16.013
"2/8/2020 18:04:16.025",0.453,0.293,-0.359,2020-02-08 18:04:16.025
"2/8/2020 18:04:16.038",0.266,0.75,-0.16,2020-02-08 18:04:16.038
"2/8/2020 18:04:16.050",-1.438,3.516,-2.535,2020-02-08 18:04:16.049
"2/8/2020 18:04:16.063",0.758,3.73,-2.488,2020-02-08 18:04:16.062
"2/8/2020 18:04:16.075",0.438,-0.309,-1.238,2020-02-08 18:04:16.075
"2/8/2020 18:04:16.088",3.027,-0.664,0.379,2020-02-08 18:04:16.088
"2/8/2020 18:04:16.100",1.617,0.371,0.313,2020-02-08 18:04:16.099
"2/8/2020 18:04:16.113",-0.715,0.469,-0.465,2020-02-08 18:04:16.112
"2/8/2020 18:04:16.125",-0.711,0.785,-0.43,2020-02-08 18:04:16.125
"2/8/2020 18:04:16.138",-0.348,1.289,-0.254,2020-02-08 18:04:16.138
"2/8/2020 18:04:16.150",-0.258,1.516,-0.137,2020-02-08 18:04:16.150
"2/8/2020 18:04:16.163",-0.426,1.223,-0.113,2020-02-08 18:04:16.163
"2/8/2020 18:04:16.175",-0.516,0.844,-0.145,2020-02-08 18:04:16.174
"2/8/2020 18:04:16.188",-0.457,0.648,-0.117,2020-02-08 18:04:16.187
"2/8/2020 18:04:16.200",-0.242,0.816,-0.09,2020-02-08 18:04:16.200
"2/8/2020 18:04:16.213",-0.074,1.121,-0.027,2020-02-08 18:04:16.213
"2/8/2020 18:04:16.225",-0.02,1.242,0.078,2020-02-08 18:04:16.224
"2/8/2020 18:04:16.238",-0.059,1.152,0.16,2020-02-08 18:04:16.237
"2/8/2020 18:04:16.250",-0.098,1.074,0.258,2020-02-08 18:04:16.250
"2/8/2020 18:04:16.263",-0.168,1.094,0.395,2020-02-08 18:04:16.263
"2/8/2020 18:04:16.275",-0.293,1.18,0.648,2020-02-08 18:04:16.275
"2/8/2020 18:04:16.288",-0.551,1.355,0.855,2020-02-08 18:04:16.288
"2/8/2020 18:04:16.300",-0.855,1.758,1.043,2020-02-08 18:04:16.299
"2/8/2020 18:04:16.313",-0.832,1.992,1.211,2020-02-08 18:04:16.312
"2/8/2020 18:04:16.325",-0.586,1.797,1.375,2020-02-08 18:04:16.325
"2/8/2020 18:04:16.338",-0.34,1.543,1.402,2020-02-08 18:04:16.338
"2/8/2020 18:04:16.350",-0.379,1.316,1.297,2020-02-08 18:04:16.349
"2/8/2020 18:04:16.363",-0.391,1.008,1.047,2020-02-08 18:04:16.362
"2/8/2020 18:04:16.375",-0.195,0.582,0.785,2020-02-08 18:04:16.375
"2/8/2020 18:04:16.388",0,0.371,0.449,2020-02-08 18:04:16.388
"2/8/2020 18:04:16.400",0.078,0.316,-0.02,2020-02-08 18:04:16.400
"2/8/2020 18:04:16.413",0.273,0.449,-0.105,2020-02-08 18:04:16.413
"2/8/2020 18:04:16.425",0.445,0.668,-0.102,2020-02-08 18:04:16.424
"2/8/2020 18:04:16.438",0.551,0.699,-0.098,2020-02-08 18:04:16.437
"2/8/2020 18:04:16.450",0.684,0.539,-0.035,2020-02-08 18:04:16.450
"2/8/2020 18:04:16.463",0.688,0.328,0,2020-02-08 18:04:16.463
"2/8/2020 18:04:16.475",0.586,0.219,0.02,2020-02-08 18:04:16.474
"2/8/2020 18:04:16.488",0.371,0.238,0.051,2020-02-08 18:04:16.487
"2/8/2020 18:04:16.500",0.199,0.258,0.059,2020-02-08 18:04:16.500
"2/8/2020 18:04:16.513",0.164,0.223,0.086,2020-02-08 18:04:16.513
"2/8/2020 18:04:16.525",0.242,0.203,0.059,2020-02-08 18:04:16.525
"2/8/2020 18:04:16.538",0.508,0.191,0,2020-02-08 18:04:16.538
"2/8/2020 18:04:16.550",0.809,0.258,-0.121,2020-02-08 18:04:16.549
"2/8/2020 18:04:16.563",0.973,0.535,-0.172,2020-02-08 18:04:16.562
"2/8/2020 18:04:16.575",-0.16,1.434,-1.98,2020-02-08 18:04:16.575
"2/8/2020 18:04:16.588",-0.84,2.281,-1.402,2020-02-08 18:04:16.588
"2/8/2020 18:04:16.600",2.465,-1.738,-0.691,2020-02-08 18:04:16.599
"2/8/2020 18:04:16.613",3.219,0.09,1.129,2020-02-08 18:04:16.612
"2/8/2020 18:04:16.625",0.18,0.387,0.199,2020-02-08 18:04:16.625
"2/8/2020 18:04:16.638",-1.477,0.512,-0.07,2020-02-08 18:04:16.638
"2/8/2020 18:04:16.650",-1.137,0.391,-0.301,2020-02-08 18:04:16.650
"2/8/2020 18:04:16.663",-0.629,0.672,-0.355,2020-02-08 18:04:16.663
"2/8/2020 18:04:16.675",-0.402,0.867,-0.426,2020-02-08 18:04:16.674
"2/8/2020 18:04:16.688",-0.598,0.961,-0.586,2020-02-08 18:04:16.687
"2/8/2020 18:04:16.700",-0.52,0.93,-0.438,2020-02-08 18:04:16.700
"2/8/2020 18:04:16.713",-0.488,0.902,-0.211,2020-02-08 18:04:16.713
"2/8/2020 18:04:16.725",-0.344,0.875,-0.203,2020-02-08 18:04:16.724
"2/8/2020 18:04:16.738",-0.207,0.867,-0.164,2020-02-08 18:04:16.737
"2/8/2020 18:04:16.750",-0.18,0.914,-0.109,2020-02-08 18:04:16.750
"2/8/2020 18:04:16.763",-0.332,0.918,-0.066,2020-02-08 18:04:16.763
"2/8/2020 18:04:16.775",-0.508,0.891,-0.07,2020-02-08 18:04:16.775
"2/8/2020 18:04:16.788",-0.625,0.82,-0.094,2020-02-08 18:04:16.788
"2/8/2020 18:04:16.800",-0.598,0.789,-0.125,2020-02-08 18:04:16.799
"2/8/2020 18:04:16.813",-0.523,0.824,-0.137,2020-02-08 18:04:16.812
"2/8/2020 18:04:16.825",-0.426,0.867,-0.172,2020-02-08 18:04:16.825
"2/8/2020 18:04:16.838",-0.371,0.887,-0.18,2020-02-08 18:04:16.838
"2/8/2020 18:04:16.850",-0.379,0.879,-0.152,2020-02-08 18:04:16.849
"2/8/2020 18:04:16.863",-0.367,0.887,-0.148,2020-02-08 18:04:16.862
"2/8/2020 18:04:16.875",-0.352,0.895,-0.18,2020-02-08 18:04:16.875
"2/8/2020 18:04:16.888",-0.348,0.879,-0.207,2020-02-08 18:04:16.888
"2/8/2020 18:04:16.900",-0.344,0.863,-0.215,2020-02-08 18:04:16.900
"2/8/2020 18:04:16.913",-0.348,0.879,-0.246,2020-02-08 18:04:16.913
"2/8/2020 18:04:16.925",-0.363,0.871,-0.297,2020-02-08 18:04:16.924
"2/8/2020 18:04:16.938",-0.391,0.844,-0.309,2020-02-08 18:04:16.937
"2/8/2020 18:04:16.950",-0.375,0.813,-0.324,2020-02-08 18:04:16.950
"2/8/2020 18:04:16.963",-0.332,0.813,-0.352,2020-02-08 18:04:16.963
"2/8/2020 18:04:16.975",-0.297,0.824,-0.363,2020-02-08 18:04:16.974
"2/8/2020 18:04:16.988",-0.273,0.84,-0.355,2020-02-08 18:04:16.987
"2/8/2020 18:04:17.000",-0.281,0.883,-0.316,2020-02-08 18:04:17.000
"2/8/2020 18:04:17.013",-0.297,0.91,-0.289,2020-02-08 18:04:17.013
"2/8/2020 18:04:17.025",-0.305,0.906,-0.27,2020-02-08 18:04:17.025
"2/8/2020 18:04:17.038",-0.313,0.898,-0.25,2020-02-08 18:04:17.038
"2/8/2020 18:04:17.050",-0.32,0.895,-0.211,2020-02-08 18:04:17.049
"2/8/2020 18:04:17.063",-0.285,0.922,-0.16,2020-02-08 18:04:17.062
"2/8/2020 18:04:17.075",-0.297,1.016,-0.156,2020-02-08 18:04:17.075
"2/8/2020 18:04:17.088",-0.359,1.141,-0.195,2020-02-08 18:04:17.088
"2/8/2020 18:04:17.100",-0.324,1.18,-0.172,2020-02-08 18:04:17.099
"2/8/2020 18:04:17.113",-0.293,1.16,-0.141,2020-02-08 18:04:17.112
"2/8/2020 18:04:17.125",-0.305,1.172,-0.105,2020-02-08 18:04:17.125
"2/8/2020 18:04:17.138",-0.371,1.18,-0.066,2020-02-08 18:04:17.138
"2/8/2020 18:04:17.150",-0.41,1.145,-0.074,2020-02-08 18:04:17.150
"2/8/2020 18:04:17.163",-0.414,1.117,-0.137,2020-02-08 18:04:17.163
"2/8/2020 18:04:17.175",-0.359,1.094,-0.25,2020-02-08 18:04:17.174
"2/8/2020 18:04:17.188",-0.258,1.039,-0.344,2020-02-08 18:04:17.187
"2/8/2020 18:04:17.200",-0.16,0.969,-0.422,2020-02-08 18:04:17.200
"2/8/2020 18:04:17.213",-0.117,0.887,-0.473,2020-02-08 18:04:17.213
"2/8/2020 18:04:17.225",-0.102,0.801,-0.496,2020-02-08 18:04:17.224
"2/8/2020 18:04:17.238",-0.086,0.73,-0.5,2020-02-08 18:04:17.237
"2/8/2020 18:04:17.250",-0.094,0.664,-0.512,2020-02-08 18:04:17.250
"2/8/2020 18:04:17.263",-0.137,0.621,-0.516,2020-02-08 18:04:17.263
"2/8/2020 18:04:17.275",-0.133,0.637,-0.496,2020-02-08 18:04:17.275
"2/8/2020 18:04:17.288",-0.117,0.711,-0.469,2020-02-08 18:04:17.288
"2/8/2020 18:04:17.300",-0.145,0.805,-0.445,2020-02-08 18:04:17.299
"2/8/2020 18:04:17.313",-0.242,0.863,-0.391,2020-02-08 18:04:17.312
"2/8/2020 18:04:17.325",-0.363,0.875,-0.328,2020-02-08 18:04:17.325
"2/8/2020 18:04:17.338",-0.426,0.844,-0.293,2020-02-08 18:04:17.338
"2/8/2020 18:04:17.350",-0.426,0.844,-0.289,2020-02-08 18:04:17.349
"2/8/2020 18:04:17.363",-0.387,0.863,-0.316,2020-02-08 18:04:17.362
"2/8/2020 18:04:17.375",-0.328,0.883,-0.32,2020-02-08 18:04:17.375
"2/8/2020 18:04:17.388",-0.297,0.875,-0.297,2020-02-08 18:04:17.388
"2/8/2020 18:04:17.400",-0.27,0.875,-0.238,2020-02-08 18:04:17.400
"2/8/2020 18:04:17.413",-0.246,0.855,-0.184,2020-02-08 18:04:17.413
"2/8/2020 18:04:17.425",-0.211,0.805,-0.145,2020-02-08 18:04:17.424
"2/8/2020 18:04:17.438",-0.203,0.766,-0.086,2020-02-08 18:04:17.437
"2/8/2020 18:04:17.450",-0.207,0.73,-0.004,2020-02-08 18:04:17.450
"2/8/2020 18:04:17.463",-0.199,0.723,0.07,2020-02-08 18:04:17.463
"2/8/2020 18:04:17.475",-0.184,0.699,0.109,2020-02-08 18:04:17.474
"2/8/2020 18:04:17.488",-0.168,0.648,0.125,2020-02-08 18:04:17.487
"2/8/2020 18:04:17.500",-0.145,0.578,0.129,2020-02-08 18:04:17.500
"2/8/2020 18:04:17.513",-0.078,0.469,0.148,2020-02-08 18:04:17.513
"2/8/2020 18:04:17.525",0.004,0.328,0.203,2020-02-08 18:04:17.525
"2/8/2020 18:04:17.538",0.117,0.152,0.297,2020-02-08 18:04:17.538
"2/8/2020 18:04:17.550",0.227,-0.043,0.414,2020-02-08 18:04:17.549
"2/8/2020 18:04:17.563",0.266,-0.176,0.551,2020-02-08 18:04:17.562
"2/8/2020 18:04:17.575",-0.145,1.227,-0.438,2020-02-08 18:04:17.575
"2/8/2020 18:04:17.588",-3.172,4.363,-1.699,2020-02-08 18:04:17.588
"2/8/2020 18:04:17.600",-0.035,3.852,0.051,2020-02-08 18:04:17.599
"2/8/2020 18:04:17.613",0.406,1.664,0.855,2020-02-08 18:04:17.612
"2/8/2020 18:04:17.625",0.184,0.023,-0.125,2020-02-08 18:04:17.625
"2/8/2020 18:04:17.638",-0.313,0.039,-0.484,2020-02-08 18:04:17.638
"2/8/2020 18:04:17.650",-0.324,0.398,-0.531,2020-02-08 18:04:17.650
"2/8/2020 18:04:17.663",-0.273,0.633,-0.336,2020-02-08 18:04:17.663
"2/8/2020 18:04:17.675",-0.395,1.012,-0.113,2020-02-08 18:04:17.674
"2/8/2020 18:04:17.688",-0.559,1.242,-0.133,2020-02-08 18:04:17.687
"2/8/2020 18:04:17.700",-0.52,1.121,-0.203,2020-02-08 18:04:17.700
"2/8/2020 18:04:17.713",-0.457,0.906,-0.242,2020-02-08 18:04:17.713
"2/8/2020 18:04:17.725",-0.414,0.789,-0.293,2020-02-08 18:04:17.724
"2/8/2020 18:04:17.738",-0.406,0.805,-0.328,2020-02-08 18:04:17.737
"2/8/2020 18:04:17.750",-0.379,0.863,-0.336,2020-02-08 18:04:17.750
"2/8/2020 18:04:17.763",-0.332,0.867,-0.363,2020-02-08 18:04:17.763
"2/8/2020 18:04:17.775",-0.352,0.832,-0.371,2020-02-08 18:04:17.775
"2/8/2020 18:04:17.788",-0.426,0.789,-0.336,2020-02-08 18:04:17.788
"2/8/2020 18:04:17.800",-0.48,0.766,-0.281,2020-02-08 18:04:17.799
"2/8/2020 18:04:17.813",-0.516,0.793,-0.25,2020-02-08 18:04:17.812
"2/8/2020 18:04:17.825",-0.523,0.832,-0.238,2020-02-08 18:04:17.825
"2/8/2020 18:04:17.838",-0.496,0.855,-0.254,2020-02-08 18:04:17.838
"2/8/2020 18:04:17.850",-0.477,0.863,-0.266,2020-02-08 18:04:17.849
"2/8/2020 18:04:17.863",-0.48,0.852,-0.277,2020-02-08 18:04:17.862
"2/8/2020 18:04:17.875",-0.484,0.832,-0.293,2020-02-08 18:04:17.875
"2/8/2020 18:04:17.888",-0.512,0.797,-0.305,2020-02-08 18:04:17.888
"2/8/2020 18:04:17.900",-0.543,0.777,-0.313,2020-02-08 18:04:17.900
"2/8/2020 18:04:17.913",-0.543,0.793,-0.309,2020-02-08 18:04:17.913
"2/8/2020 18:04:17.925",-0.527,0.789,-0.316,2020-02-08 18:04:17.924
"2/8/2020 18:04:17.938",-0.508,0.789,-0.32,2020-02-08 18:04:17.937
"2/8/2020 18:04:17.950",-0.512,0.82,-0.316,2020-02-08 18:04:17.950
"2/8/2020 18:04:17.963",-0.512,0.867,-0.301,2020-02-08 18:04:17.963
"2/8/2020 18:04:17.975",-0.492,0.91,-0.285,2020-02-08 18:04:17.974
"2/8/2020 18:04:17.988",-0.48,0.914,-0.25,2020-02-08 18:04:17.987
"2/8/2020 18:04:18.000",-0.484,0.883,-0.199,2020-02-08 18:04:18.000
"2/8/2020 18:04:18.013",-0.488,0.867,-0.156,2020-02-08 18:04:18.013
"2/8/2020 18:04:18.025",-0.441,0.922,-0.211,2020-02-08 18:04:18.025
